File: UVVIS_Absorbance_Anode_Adsorbed.csv
A,B,K,M,C,P,AB,AK,AM,AC,AP,BK,BM,BC,BP,KM,KC,KP,MC,MP,CP,ABK,ABM,ABC,ABP,AKM,AKC,AKP,AMC,AMP,ACP,BKM,BKC,BKP,BMC,BMP,BCP,KMC,KMP,KCP,MCP,ABKMCP
0.131,-0.086,0.084,0.136,0.058,0.136,-0.186,0.127,-0.341,-0.586,-0.305,-0.363,0.016,-0.062,0.136,0.006,-0.55,-0.477,0.067,-0.187,0.151,0.112,-0.054,0.304,-0.279,0.086,0.078,-0.255,0.07,-0.167,-0.217,-0.272,0.089,-0.021,-0.052,0.062,0.033,0.172,-1.14,0.286,0.075,0.055
-0.282,-0.149,0,-0.067,-0.105,-0.117,-0.358,-0.12,-0.487,-0.777,-0.434,-0.59,-0.063,-0.224,-0.072,-0.131,-0.695,-0.624,-0.219,-0.235,0.206,0.151,0.307,0.208,-0.315,0.267,0.03,-0.26,0.055,-0.166,-0.224,-0.215,0.339,-0.003,0.002,0.16,0.113,0.399,-1.156,0.158,0.151,0.085
0.149,0.112,0.167,0.171,0.015,0.211,-0.086,0.166,-0.278,-0.519,-0.253,-0.299,0.126,-0.002,0.11,0.241,-0.457,-0.391,0.247,0.01,0.111,0.193,0.099,0.3,-0.348,0.394,0.154,-0.254,0.001,-0.192,-0.268,-0.268,0.215,0.068,0.055,0.096,0.186,0.229,-1.123,0.173,0.379,0.18
0.167,0.339,0.297,0.33,0.103,0.3,0.062,0.156,-0.04,-0.292,-0.026,-0.101,0.31,0.178,0.211,0.305,-0.177,-0.13,0.439,0.213,0.41,0.356,0.314,0.398,-0.206,0.426,0.133,-0.032,0.162,-0.066,-0.067,-0.056,0.339,0.194,0.182,0.221,0.327,0.418,-0.926,0.29,0.469,0.401
0.371,0.579,0.586,0.718,0.149,0.342,0.239,0.334,0.238,-0.069,0.116,0.08,0.577,0.293,0.312,0.805,0.076,0.132,0.836,0.508,0.513,0.387,0.343,0.497,-0.072,0.58,0.259,0.18,0.3,0.145,0.055,0.126,0.364,0.368,0.293,0.262,0.336,0.683,-0.699,0.313,0.592,0.719
0.37,0.554,0.674,0.746,0.209,0.398,0.426,0.355,0.395,0.064,0.261,0.221,0.616,0.417,0.366,0.844,0.237,0.322,0.834,0.609,0.476,0.451,0.44,0.552,0.039,0.6,0.338,0.355,0.381,0.288,0.126,0.289,0.398,0.415,0.33,0.303,0.393,0.664,-0.478,0.323,0.579,0.739
0.349,0.542,0.707,0.807,0.193,0.369,0.424,0.331,0.483,0.148,0.29,0.243,0.675,0.442,0.293,1.001,0.312,0.397,0.9,0.623,0.418,0.445,0.474,0.53,0.125,0.643,0.359,0.491,0.457,0.372,0.176,0.39,0.363,0.473,0.34,0.316,0.374,0.803,-0.281,0.345,0.548,0.731
0.339,0.583,0.73,0.774,0.181,0.339,0.419,0.321,0.539,0.188,0.28,0.257,0.556,0.394,0.253,1.023,0.327,0.435,0.886,0.617,0.388,0.426,0.402,0.521,0.183,0.617,0.386,0.539,0.49,0.392,0.223,0.458,0.334,0.495,0.346,0.304,0.359,0.833,-0.104,0.325,0.549,0.771
0.339,0.576,0.74,0.799,0.241,0.305,0.424,0.321,0.585,0.219,0.334,0.287,0.542,0.387,0.212,1.018,0.352,0.46,0.84,0.58,0.367,0.403,0.381,0.482,0.221,0.611,0.392,0.575,0.535,0.435,0.242,0.487,0.302,0.468,0.339,0.274,0.342,0.818,0.081,0.324,0.489,0.72
0.336,0.581,0.768,0.797,0.216,0.319,0.391,0.328,0.627,0.243,0.282,0.278,0.497,0.386,0.214,0.994,0.406,0.456,0.797,0.541,0.363,0.406,0.411,0.443,0.241,0.602,0.37,0.585,0.555,0.406,0.269,0.503,0.303,0.443,0.355,0.309,0.309,0.786,0.236,0.316,0.499,0.69
0.341,0.598,0.791,0.814,0.237,0.314,0.419,0.33,0.645,0.272,0.293,0.288,0.478,0.364,0.2,0.991,0.357,0.442,0.797,0.533,0.326,0.329,0.349,0.409,0.231,0.573,0.358,0.552,0.544,0.431,0.277,0.515,0.265,0.372,0.324,0.277,0.304,0.753,0.295,0.299,0.435,0.653
0.333,0.617,0.787,0.783,0.226,0.309,0.403,0.333,0.639,0.268,0.288,0.275,0.457,0.354,0.199,0.981,0.358,0.442,0.764,0.509,0.314,0.324,0.335,0.384,0.239,0.562,0.356,0.588,0.56,0.412,0.243,0.479,0.232,0.39,0.286,0.264,0.278,0.729,0.368,0.28,0.409,0.641
0.325,0.628,0.789,0.78,0.224,0.296,0.379,0.339,0.639,0.272,0.291,0.266,0.43,0.343,0.186,0.955,0.336,0.417,0.739,0.47,0.303,0.308,0.322,0.363,0.233,0.569,0.333,0.519,0.567,0.384,0.25,0.466,0.236,0.37,0.28,0.246,0.259,0.715,0.399,0.271,0.385,0.587
0.311,0.583,0.793,0.781,0.208,0.286,0.374,0.32,0.626,0.253,0.269,0.252,0.406,0.323,0.171,0.942,0.316,0.406,0.721,0.453,0.286,0.286,0.318,0.349,0.219,0.561,0.338,0.523,0.535,0.389,0.248,0.446,0.217,0.33,0.278,0.247,0.256,0.699,0.432,0.266,0.363,0.578
0.31,0.587,0.794,0.767,0.201,0.282,0.367,0.336,0.634,0.256,0.265,0.257,0.39,0.326,0.166,0.935,0.305,0.402,0.687,0.434,0.283,0.274,0.302,0.318,0.211,0.538,0.309,0.503,0.507,0.362,0.235,0.435,0.211,0.324,0.26,0.235,0.242,0.657,0.441,0.245,0.351,0.537
0.289,0.566,0.778,0.755,0.198,0.272,0.352,0.316,0.633,0.242,0.252,0.235,0.396,0.311,0.165,0.914,0.288,0.372,0.681,0.413,0.269,0.267,0.292,0.315,0.203,0.556,0.304,0.478,0.507,0.35,0.224,0.43,0.198,0.318,0.25,0.221,0.228,0.654,0.463,0.242,0.337,0.526
0.28,0.575,0.772,0.757,0.184,0.26,0.341,0.32,0.612,0.241,0.245,0.242,0.364,0.303,0.154,0.908,0.273,0.361,0.655,0.399,0.255,0.263,0.277,0.303,0.199,0.516,0.292,0.466,0.515,0.335,0.231,0.409,0.197,0.3,0.245,0.214,0.219,0.647,0.465,0.234,0.318,0.499
0.274,0.557,0.772,0.731,0.169,0.245,0.322,0.314,0.606,0.229,0.235,0.222,0.354,0.294,0.145,0.887,0.265,0.352,0.632,0.383,0.248,0.246,0.276,0.286,0.198,0.518,0.276,0.439,0.494,0.319,0.217,0.391,0.183,0.281,0.23,0.196,0.206,0.627,0.475,0.22,0.303,0.49
0.263,0.554,0.746,0.721,0.16,0.232,0.31,0.31,0.6,0.223,0.229,0.222,0.342,0.28,0.133,0.875,0.256,0.337,0.63,0.365,0.237,0.236,0.267,0.276,0.189,0.509,0.269,0.433,0.487,0.316,0.207,0.384,0.173,0.269,0.223,0.193,0.192,0.593,0.478,0.211,0.291,0.471
0.257,0.532,0.767,0.719,0.156,0.227,0.311,0.305,0.597,0.214,0.221,0.217,0.33,0.275,0.131,0.865,0.246,0.325,0.6,0.349,0.228,0.231,0.26,0.27,0.182,0.508,0.27,0.422,0.474,0.298,0.203,0.369,0.166,0.264,0.215,0.181,0.188,0.574,0.487,0.201,0.279,0.447
0.247,0.524,0.733,0.717,0.15,0.217,0.292,0.298,0.578,0.209,0.21,0.204,0.321,0.267,0.122,0.846,0.235,0.308,0.581,0.333,0.22,0.223,0.252,0.26,0.18,0.503,0.255,0.418,0.468,0.292,0.198,0.361,0.158,0.255,0.215,0.173,0.178,0.564,0.482,0.195,0.263,0.438
0.243,0.521,0.732,0.7,0.149,0.211,0.289,0.297,0.583,0.205,0.206,0.204,0.314,0.262,0.118,0.846,0.231,0.303,0.564,0.319,0.211,0.213,0.241,0.251,0.17,0.487,0.248,0.403,0.462,0.276,0.189,0.35,0.154,0.24,0.205,0.167,0.177,0.541,0.476,0.189,0.253,0.415
0.243,0.507,0.718,0.689,0.142,0.206,0.281,0.296,0.569,0.2,0.203,0.197,0.3,0.254,0.116,0.819,0.225,0.297,0.55,0.307,0.206,0.208,0.237,0.241,0.164,0.483,0.241,0.386,0.449,0.267,0.182,0.34,0.149,0.231,0.196,0.159,0.169,0.531,0.49,0.181,0.241,0.408
0.238,0.504,0.713,0.682,0.141,0.196,0.277,0.29,0.553,0.197,0.198,0.197,0.295,0.251,0.111,0.806,0.219,0.286,0.537,0.294,0.198,0.2,0.229,0.235,0.164,0.473,0.238,0.379,0.445,0.262,0.176,0.33,0.141,0.224,0.191,0.153,0.16,0.508,0.483,0.177,0.236,0.401
0.234,0.497,0.703,0.678,0.14,0.194,0.271,0.289,0.554,0.189,0.19,0.191,0.287,0.244,0.106,0.805,0.21,0.28,0.514,0.281,0.196,0.196,0.226,0.23,0.157,0.469,0.229,0.373,0.435,0.248,0.173,0.324,0.139,0.217,0.186,0.149,0.158,0.497,0.48,0.171,0.222,0.378
0.23,0.484,0.695,0.66,0.132,0.187,0.262,0.285,0.543,0.188,0.184,0.184,0.28,0.241,0.102,0.794,0.207,0.267,0.502,0.272,0.191,0.19,0.223,0.224,0.154,0.463,0.226,0.362,0.428,0.238,0.168,0.314,0.137,0.21,0.183,0.14,0.155,0.485,0.476,0.161,0.215,0.371
0.229,0.484,0.678,0.659,0.132,0.182,0.259,0.279,0.535,0.181,0.179,0.179,0.269,0.237,0.097,0.772,0.2,0.261,0.487,0.259,0.184,0.183,0.219,0.216,0.149,0.463,0.218,0.352,0.42,0.231,0.161,0.307,0.128,0.201,0.174,0.134,0.146,0.472,0.477,0.156,0.205,0.359
0.227,0.478,0.675,0.642,0.13,0.175,0.252,0.276,0.524,0.181,0.174,0.176,0.267,0.235,0.094,0.758,0.19,0.253,0.472,0.251,0.179,0.182,0.209,0.214,0.149,0.454,0.213,0.342,0.412,0.224,0.159,0.298,0.125,0.195,0.172,0.131,0.143,0.452,0.471,0.151,0.197,0.35
0.225,0.473,0.663,0.634,0.124,0.171,0.247,0.275,0.518,0.177,0.169,0.173,0.26,0.231,0.092,0.75,0.186,0.248,0.459,0.242,0.177,0.177,0.208,0.21,0.143,0.445,0.206,0.334,0.407,0.214,0.154,0.291,0.123,0.188,0.168,0.126,0.139,0.446,0.467,0.147,0.19,0.338
0.222,0.467,0.645,0.623,0.119,0.168,0.242,0.27,0.51,0.174,0.164,0.168,0.25,0.227,0.089,0.738,0.178,0.237,0.447,0.232,0.172,0.174,0.206,0.204,0.139,0.439,0.205,0.326,0.4,0.212,0.154,0.283,0.121,0.183,0.162,0.122,0.138,0.429,0.459,0.144,0.183,0.331
0.223,0.462,0.63,0.614,0.119,0.163,0.239,0.268,0.505,0.173,0.161,0.166,0.247,0.224,0.088,0.723,0.173,0.235,0.436,0.227,0.165,0.17,0.2,0.197,0.138,0.43,0.2,0.317,0.391,0.202,0.149,0.276,0.116,0.178,0.159,0.12,0.133,0.417,0.453,0.138,0.177,0.324
0.22,0.464,0.614,0.607,0.115,0.16,0.238,0.265,0.496,0.168,0.156,0.162,0.243,0.225,0.085,0.713,0.167,0.229,0.424,0.22,0.164,0.166,0.197,0.194,0.135,0.43,0.194,0.31,0.388,0.197,0.145,0.272,0.112,0.172,0.155,0.114,0.129,0.409,0.443,0.134,0.173,0.32
0.213,0.453,0.598,0.592,0.108,0.155,0.233,0.256,0.487,0.162,0.15,0.157,0.235,0.219,0.081,0.7,0.16,0.22,0.405,0.211,0.16,0.163,0.193,0.19,0.132,0.418,0.19,0.304,0.378,0.191,0.144,0.264,0.11,0.168,0.152,0.112,0.127,0.394,0.435,0.13,0.168,0.307
0.212,0.45,0.572,0.578,0.104,0.15,0.227,0.253,0.483,0.162,0.146,0.154,0.231,0.217,0.078,0.682,0.152,0.214,0.398,0.205,0.155,0.16,0.189,0.185,0.13,0.407,0.188,0.293,0.371,0.185,0.139,0.255,0.108,0.161,0.148,0.108,0.122,0.379,0.428,0.124,0.162,0.298
0.207,0.441,0.554,0.561,0.098,0.144,0.223,0.247,0.472,0.155,0.141,0.148,0.221,0.214,0.074,0.661,0.146,0.206,0.382,0.195,0.15,0.155,0.185,0.179,0.124,0.4,0.178,0.287,0.358,0.178,0.136,0.249,0.104,0.156,0.144,0.104,0.118,0.367,0.418,0.119,0.154,0.288
0.204,0.441,0.528,0.552,0.094,0.142,0.22,0.242,0.467,0.153,0.138,0.146,0.217,0.211,0.073,0.652,0.141,0.201,0.372,0.191,0.147,0.155,0.18,0.177,0.123,0.392,0.175,0.28,0.353,0.171,0.132,0.243,0.101,0.152,0.141,0.1,0.116,0.355,0.408,0.114,0.149,0.282
0.2,0.436,0.512,0.536,0.09,0.135,0.215,0.234,0.455,0.148,0.133,0.141,0.211,0.209,0.069,0.632,0.133,0.195,0.356,0.183,0.145,0.151,0.177,0.172,0.121,0.381,0.172,0.273,0.343,0.166,0.128,0.237,0.099,0.148,0.138,0.096,0.112,0.343,0.4,0.109,0.143,0.272
0.196,0.431,0.486,0.52,0.086,0.133,0.213,0.228,0.445,0.146,0.129,0.139,0.207,0.205,0.067,0.613,0.129,0.189,0.346,0.175,0.141,0.147,0.175,0.17,0.118,0.373,0.166,0.268,0.336,0.161,0.126,0.231,0.097,0.143,0.134,0.094,0.11,0.332,0.391,0.107,0.139,0.263
0.194,0.428,0.464,0.505,0.084,0.129,0.21,0.222,0.439,0.141,0.126,0.138,0.202,0.203,0.067,0.594,0.123,0.184,0.334,0.171,0.139,0.145,0.169,0.167,0.115,0.364,0.164,0.261,0.327,0.156,0.123,0.226,0.096,0.14,0.132,0.092,0.107,0.319,0.385,0.103,0.135,0.256
0.188,0.422,0.447,0.488,0.08,0.126,0.206,0.218,0.433,0.137,0.123,0.135,0.199,0.201,0.064,0.579,0.119,0.177,0.326,0.166,0.136,0.145,0.168,0.165,0.114,0.356,0.159,0.258,0.321,0.153,0.121,0.221,0.094,0.136,0.13,0.088,0.104,0.31,0.375,0.099,0.13,0.25
0.187,0.418,0.423,0.477,0.076,0.122,0.204,0.214,0.419,0.135,0.12,0.133,0.193,0.198,0.061,0.56,0.115,0.174,0.314,0.162,0.13,0.141,0.164,0.163,0.112,0.342,0.156,0.251,0.312,0.147,0.115,0.213,0.093,0.13,0.126,0.084,0.099,0.299,0.365,0.093,0.127,0.243
0.187,0.414,0.404,0.454,0.076,0.119,0.202,0.206,0.418,0.132,0.122,0.13,0.192,0.198,0.062,0.544,0.112,0.169,0.302,0.157,0.13,0.135,0.163,0.155,0.111,0.337,0.151,0.247,0.303,0.142,0.111,0.213,0.087,0.128,0.12,0.082,0.099,0.286,0.364,0.09,0.121,0.236
0.184,0.409,0.377,0.433,0.073,0.116,0.199,0.202,0.399,0.128,0.118,0.128,0.187,0.195,0.06,0.512,0.106,0.164,0.288,0.149,0.128,0.137,0.158,0.158,0.106,0.322,0.148,0.242,0.293,0.138,0.11,0.208,0.091,0.126,0.122,0.079,0.097,0.273,0.351,0.089,0.115,0.227
0.182,0.407,0.353,0.411,0.07,0.112,0.195,0.195,0.392,0.124,0.115,0.125,0.181,0.191,0.057,0.486,0.1,0.157,0.274,0.145,0.124,0.135,0.155,0.155,0.104,0.311,0.142,0.237,0.287,0.134,0.108,0.203,0.089,0.123,0.12,0.077,0.095,0.26,0.346,0.085,0.112,0.221
0.183,0.402,0.333,0.396,0.07,0.111,0.198,0.196,0.387,0.124,0.117,0.125,0.185,0.195,0.061,0.467,0.099,0.16,0.27,0.148,0.128,0.141,0.155,0.16,0.111,0.312,0.146,0.238,0.287,0.135,0.11,0.205,0.092,0.123,0.12,0.074,0.098,0.252,0.342,0.084,0.109,0.216
0.184,0.401,0.313,0.377,0.066,0.106,0.194,0.189,0.371,0.12,0.112,0.122,0.178,0.19,0.055,0.442,0.095,0.15,0.253,0.137,0.122,0.134,0.154,0.154,0.104,0.289,0.138,0.233,0.27,0.127,0.105,0.197,0.089,0.116,0.114,0.073,0.092,0.24,0.334,0.079,0.106,0.21
0.185,0.396,0.293,0.36,0.064,0.105,0.192,0.186,0.363,0.117,0.111,0.121,0.174,0.188,0.054,0.416,0.09,0.146,0.243,0.133,0.122,0.134,0.152,0.156,0.101,0.278,0.133,0.23,0.266,0.124,0.104,0.193,0.088,0.115,0.114,0.069,0.091,0.231,0.328,0.078,0.102,0.204
0.185,0.395,0.274,0.337,0.064,0.103,0.192,0.182,0.353,0.115,0.112,0.12,0.172,0.19,0.054,0.393,0.086,0.141,0.234,0.128,0.12,0.132,0.149,0.154,0.101,0.267,0.132,0.227,0.258,0.122,0.102,0.193,0.088,0.115,0.112,0.07,0.09,0.22,0.323,0.076,0.1,0.2
0.187,0.392,0.258,0.32,0.06,0.102,0.191,0.181,0.343,0.113,0.108,0.119,0.171,0.185,0.051,0.366,0.084,0.139,0.222,0.124,0.118,0.132,0.149,0.155,0.102,0.258,0.131,0.223,0.25,0.119,0.101,0.188,0.089,0.111,0.111,0.068,0.089,0.209,0.317,0.075,0.096,0.195
0.19,0.393,0.24,0.295,0.058,0.1,0.191,0.18,0.333,0.111,0.108,0.118,0.168,0.186,0.051,0.338,0.083,0.137,0.213,0.121,0.117,0.132,0.147,0.154,0.099,0.247,0.127,0.223,0.244,0.115,0.099,0.186,0.088,0.11,0.109,0.066,0.088,0.2,0.309,0.071,0.095,0.191
0.193,0.388,0.223,0.273,0.058,0.097,0.19,0.179,0.324,0.109,0.105,0.118,0.167,0.186,0.05,0.316,0.08,0.135,0.204,0.119,0.116,0.135,0.148,0.155,0.1,0.238,0.126,0.221,0.236,0.115,0.099,0.185,0.088,0.109,0.109,0.066,0.087,0.19,0.304,0.07,0.092,0.19
0.198,0.387,0.209,0.254,0.056,0.098,0.192,0.18,0.317,0.107,0.107,0.117,0.164,0.186,0.05,0.291,0.078,0.132,0.196,0.115,0.115,0.134,0.145,0.156,0.098,0.227,0.125,0.218,0.23,0.111,0.097,0.182,0.088,0.106,0.106,0.065,0.086,0.18,0.298,0.067,0.09,0.185
0.201,0.386,0.196,0.235,0.055,0.097,0.192,0.178,0.309,0.107,0.105,0.117,0.162,0.186,0.049,0.27,0.075,0.13,0.187,0.113,0.115,0.135,0.146,0.155,0.098,0.22,0.124,0.218,0.224,0.11,0.098,0.179,0.089,0.106,0.107,0.063,0.086,0.173,0.294,0.067,0.088,0.182
0.206,0.385,0.184,0.22,0.054,0.096,0.192,0.179,0.301,0.105,0.105,0.116,0.162,0.184,0.049,0.25,0.073,0.129,0.18,0.111,0.115,0.135,0.147,0.156,0.098,0.214,0.123,0.216,0.219,0.108,0.097,0.178,0.09,0.103,0.106,0.063,0.086,0.166,0.289,0.067,0.087,0.181
0.21,0.383,0.176,0.205,0.053,0.096,0.194,0.182,0.297,0.106,0.104,0.116,0.16,0.185,0.049,0.235,0.073,0.128,0.175,0.11,0.114,0.136,0.146,0.157,0.098,0.208,0.123,0.215,0.216,0.108,0.098,0.176,0.091,0.105,0.106,0.063,0.087,0.159,0.284,0.067,0.085,0.179
0.214,0.382,0.166,0.192,0.053,0.095,0.195,0.182,0.29,0.104,0.104,0.116,0.16,0.185,0.048,0.22,0.072,0.126,0.169,0.107,0.115,0.137,0.146,0.157,0.096,0.203,0.122,0.214,0.211,0.107,0.098,0.175,0.091,0.104,0.105,0.062,0.086,0.153,0.28,0.065,0.083,0.177
0.219,0.382,0.156,0.178,0.051,0.094,0.196,0.185,0.287,0.104,0.103,0.115,0.159,0.186,0.049,0.204,0.07,0.126,0.163,0.107,0.113,0.139,0.146,0.158,0.096,0.196,0.121,0.212,0.208,0.104,0.097,0.173,0.092,0.103,0.105,0.061,0.085,0.147,0.276,0.065,0.082,0.173
0.222,0.381,0.147,0.166,0.05,0.094,0.197,0.187,0.283,0.104,0.104,0.116,0.159,0.186,0.05,0.19,0.069,0.125,0.158,0.105,0.114,0.139,0.146,0.159,0.097,0.192,0.122,0.212,0.203,0.104,0.098,0.171,0.092,0.102,0.104,0.062,0.085,0.142,0.272,0.064,0.082,0.173
0.226,0.379,0.138,0.153,0.049,0.093,0.2,0.188,0.277,0.103,0.104,0.116,0.158,0.187,0.05,0.176,0.068,0.125,0.153,0.105,0.113,0.141,0.146,0.159,0.097,0.186,0.121,0.209,0.2,0.101,0.097,0.17,0.092,0.101,0.103,0.061,0.084,0.134,0.266,0.063,0.08,0.172
0.229,0.379,0.13,0.141,0.048,0.093,0.2,0.189,0.274,0.103,0.102,0.116,0.157,0.188,0.048,0.163,0.067,0.123,0.148,0.102,0.113,0.141,0.147,0.16,0.096,0.183,0.121,0.209,0.195,0.1,0.098,0.168,0.092,0.101,0.103,0.061,0.084,0.13,0.26,0.064,0.08,0.171
0.229,0.376,0.122,0.131,0.046,0.092,0.202,0.188,0.27,0.102,0.102,0.116,0.156,0.188,0.049,0.153,0.066,0.122,0.143,0.101,0.113,0.141,0.147,0.16,0.095,0.18,0.121,0.208,0.192,0.099,0.098,0.166,0.092,0.1,0.102,0.061,0.085,0.124,0.255,0.062,0.079,0.17
0.231,0.377,0.116,0.123,0.046,0.091,0.202,0.189,0.267,0.101,0.102,0.115,0.156,0.188,0.049,0.144,0.065,0.122,0.138,0.099,0.112,0.142,0.148,0.161,0.095,0.175,0.12,0.207,0.189,0.098,0.097,0.164,0.093,0.098,0.102,0.06,0.083,0.121,0.252,0.062,0.078,0.168
0.23,0.374,0.109,0.115,0.045,0.09,0.203,0.188,0.263,0.101,0.102,0.115,0.154,0.188,0.048,0.136,0.064,0.121,0.136,0.099,0.113,0.142,0.146,0.16,0.095,0.173,0.12,0.205,0.186,0.097,0.097,0.164,0.092,0.099,0.101,0.061,0.083,0.117,0.247,0.062,0.078,0.167
0.229,0.372,0.103,0.109,0.043,0.089,0.202,0.187,0.261,0.099,0.101,0.115,0.153,0.187,0.048,0.129,0.063,0.119,0.132,0.096,0.111,0.141,0.146,0.159,0.095,0.169,0.12,0.204,0.183,0.095,0.098,0.161,0.091,0.097,0.1,0.059,0.083,0.113,0.244,0.062,0.077,0.166
0.225,0.371,0.097,0.102,0.041,0.087,0.201,0.184,0.256,0.098,0.1,0.112,0.151,0.186,0.047,0.124,0.063,0.118,0.128,0.095,0.111,0.142,0.146,0.159,0.094,0.167,0.12,0.205,0.181,0.095,0.097,0.159,0.091,0.098,0.099,0.06,0.083,0.11,0.242,0.061,0.075,0.165
0.222,0.368,0.091,0.095,0.041,0.087,0.202,0.181,0.254,0.098,0.1,0.112,0.15,0.186,0.047,0.116,0.061,0.118,0.126,0.094,0.112,0.142,0.144,0.159,0.094,0.165,0.119,0.203,0.179,0.094,0.095,0.158,0.09,0.097,0.098,0.058,0.082,0.106,0.237,0.06,0.075,0.164
0.216,0.366,0.086,0.089,0.04,0.085,0.2,0.178,0.25,0.096,0.1,0.111,0.148,0.184,0.047,0.109,0.06,0.118,0.122,0.093,0.11,0.141,0.144,0.157,0.094,0.161,0.118,0.201,0.177,0.092,0.095,0.155,0.089,0.095,0.097,0.058,0.081,0.102,0.233,0.059,0.073,0.163
0.211,0.363,0.081,0.082,0.039,0.084,0.198,0.173,0.247,0.094,0.1,0.109,0.146,0.183,0.047,0.103,0.06,0.116,0.119,0.092,0.111,0.14,0.143,0.157,0.094,0.159,0.118,0.201,0.175,0.092,0.095,0.153,0.087,0.095,0.096,0.058,0.081,0.099,0.232,0.058,0.073,0.162
0.205,0.362,0.076,0.078,0.038,0.082,0.197,0.169,0.244,0.093,0.1,0.108,0.145,0.181,0.046,0.099,0.059,0.115,0.117,0.091,0.11,0.139,0.141,0.155,0.093,0.156,0.116,0.201,0.172,0.091,0.094,0.15,0.086,0.094,0.095,0.058,0.081,0.096,0.228,0.058,0.072,0.159
0.198,0.359,0.071,0.074,0.037,0.081,0.194,0.164,0.24,0.091,0.098,0.106,0.143,0.179,0.045,0.093,0.058,0.113,0.114,0.089,0.109,0.137,0.139,0.154,0.093,0.153,0.116,0.199,0.171,0.09,0.093,0.147,0.085,0.093,0.093,0.056,0.08,0.094,0.225,0.057,0.071,0.159
0.192,0.357,0.067,0.069,0.036,0.079,0.191,0.158,0.237,0.09,0.098,0.104,0.14,0.178,0.044,0.088,0.057,0.112,0.111,0.088,0.108,0.135,0.137,0.15,0.092,0.149,0.114,0.198,0.169,0.089,0.093,0.144,0.082,0.092,0.091,0.055,0.079,0.091,0.223,0.057,0.07,0.156
0.185,0.355,0.064,0.066,0.036,0.079,0.189,0.154,0.233,0.089,0.098,0.102,0.137,0.178,0.044,0.086,0.057,0.112,0.108,0.087,0.108,0.132,0.135,0.148,0.091,0.146,0.113,0.198,0.167,0.089,0.092,0.143,0.081,0.09,0.089,0.053,0.078,0.088,0.22,0.056,0.068,0.155
0.177,0.352,0.062,0.062,0.034,0.077,0.184,0.148,0.23,0.086,0.097,0.099,0.134,0.175,0.044,0.082,0.055,0.109,0.106,0.084,0.107,0.129,0.132,0.146,0.09,0.143,0.112,0.196,0.165,0.087,0.09,0.139,0.078,0.089,0.086,0.053,0.077,0.086,0.218,0.055,0.067,0.153
0.169,0.35,0.058,0.06,0.034,0.076,0.181,0.141,0.225,0.084,0.096,0.098,0.131,0.172,0.042,0.079,0.055,0.109,0.105,0.084,0.106,0.126,0.129,0.143,0.09,0.14,0.11,0.195,0.164,0.087,0.09,0.136,0.077,0.088,0.085,0.052,0.076,0.084,0.216,0.054,0.066,0.151
0.161,0.346,0.055,0.057,0.033,0.075,0.176,0.135,0.221,0.083,0.096,0.094,0.129,0.17,0.042,0.075,0.055,0.108,0.102,0.082,0.105,0.121,0.126,0.139,0.088,0.135,0.109,0.194,0.162,0.085,0.087,0.132,0.074,0.087,0.082,0.05,0.075,0.081,0.213,0.053,0.063,0.149
0.151,0.341,0.052,0.053,0.032,0.071,0.17,0.127,0.216,0.08,0.094,0.09,0.124,0.167,0.04,0.071,0.053,0.105,0.098,0.079,0.105,0.118,0.122,0.135,0.088,0.131,0.106,0.193,0.161,0.085,0.086,0.128,0.072,0.085,0.08,0.049,0.074,0.079,0.21,0.051,0.062,0.147
0.145,0.34,0.049,0.051,0.032,0.071,0.165,0.121,0.212,0.079,0.094,0.088,0.121,0.165,0.039,0.068,0.053,0.103,0.097,0.078,0.103,0.113,0.117,0.131,0.086,0.128,0.105,0.192,0.159,0.083,0.085,0.124,0.069,0.083,0.077,0.047,0.072,0.077,0.207,0.05,0.06,0.144
0.137,0.336,0.048,0.049,0.031,0.069,0.159,0.115,0.207,0.077,0.092,0.085,0.116,0.161,0.038,0.065,0.052,0.1,0.095,0.076,0.102,0.109,0.113,0.128,0.084,0.124,0.102,0.19,0.159,0.082,0.084,0.121,0.066,0.081,0.075,0.046,0.072,0.076,0.205,0.049,0.059,0.141
0.131,0.334,0.046,0.047,0.031,0.067,0.153,0.11,0.205,0.076,0.092,0.083,0.113,0.16,0.037,0.062,0.052,0.1,0.093,0.075,0.101,0.104,0.11,0.124,0.084,0.121,0.101,0.189,0.157,0.08,0.083,0.117,0.064,0.08,0.073,0.045,0.07,0.074,0.202,0.049,0.058,0.14
0.125,0.332,0.045,0.046,0.03,0.066,0.148,0.105,0.201,0.073,0.091,0.079,0.108,0.158,0.035,0.059,0.051,0.098,0.091,0.073,0.1,0.099,0.105,0.119,0.083,0.117,0.099,0.187,0.155,0.079,0.081,0.112,0.061,0.077,0.07,0.042,0.069,0.072,0.199,0.047,0.057,0.137
0.119,0.33,0.042,0.045,0.03,0.065,0.141,0.099,0.197,0.072,0.089,0.076,0.105,0.155,0.034,0.058,0.05,0.096,0.09,0.072,0.099,0.095,0.101,0.114,0.081,0.113,0.096,0.186,0.153,0.078,0.08,0.108,0.057,0.076,0.068,0.042,0.067,0.07,0.197,0.046,0.055,0.135
0.113,0.328,0.042,0.043,0.03,0.064,0.135,0.094,0.194,0.071,0.089,0.073,0.1,0.152,0.034,0.056,0.051,0.095,0.09,0.07,0.097,0.089,0.095,0.108,0.08,0.11,0.095,0.184,0.151,0.077,0.078,0.104,0.054,0.073,0.065,0.04,0.066,0.068,0.193,0.045,0.054,0.132
0.108,0.323,0.041,0.042,0.03,0.063,0.128,0.09,0.19,0.068,0.088,0.069,0.096,0.149,0.032,0.053,0.05,0.092,0.086,0.068,0.095,0.084,0.091,0.104,0.078,0.106,0.092,0.182,0.15,0.075,0.076,0.099,0.051,0.071,0.062,0.038,0.064,0.066,0.191,0.043,0.051,0.129
0.103,0.322,0.04,0.041,0.029,0.061,0.122,0.086,0.186,0.067,0.085,0.066,0.092,0.147,0.03,0.05,0.048,0.09,0.086,0.066,0.094,0.078,0.086,0.098,0.076,0.102,0.09,0.18,0.148,0.073,0.075,0.095,0.047,0.069,0.06,0.036,0.063,0.065,0.188,0.042,0.05,0.127
0.098,0.319,0.038,0.039,0.028,0.059,0.115,0.082,0.183,0.066,0.084,0.063,0.088,0.143,0.029,0.049,0.049,0.088,0.084,0.064,0.095,0.075,0.082,0.095,0.076,0.1,0.089,0.179,0.149,0.073,0.074,0.092,0.046,0.069,0.058,0.036,0.062,0.064,0.185,0.041,0.049,0.125
0.096,0.318,0.038,0.04,0.029,0.058,0.11,0.079,0.181,0.065,0.083,0.061,0.084,0.142,0.029,0.048,0.049,0.087,0.084,0.063,0.092,0.07,0.078,0.091,0.074,0.097,0.087,0.177,0.147,0.072,0.073,0.088,0.042,0.067,0.055,0.034,0.061,0.063,0.182,0.04,0.048,0.122
0.093,0.316,0.038,0.039,0.03,0.058,0.105,0.076,0.179,0.064,0.082,0.059,0.081,0.14,0.028,0.047,0.049,0.085,0.083,0.063,0.092,0.067,0.075,0.087,0.073,0.095,0.086,0.176,0.145,0.071,0.072,0.086,0.041,0.065,0.055,0.033,0.06,0.062,0.18,0.039,0.046,0.121
0.089,0.316,0.037,0.038,0.029,0.056,0.1,0.074,0.176,0.062,0.08,0.056,0.078,0.139,0.027,0.046,0.048,0.084,0.083,0.061,0.091,0.062,0.071,0.082,0.072,0.091,0.083,0.173,0.143,0.069,0.071,0.082,0.038,0.063,0.052,0.031,0.058,0.06,0.176,0.038,0.046,0.119
0.087,0.315,0.037,0.038,0.031,0.056,0.095,0.072,0.174,0.062,0.079,0.055,0.076,0.137,0.026,0.045,0.049,0.083,0.082,0.06,0.09,0.058,0.067,0.079,0.07,0.089,0.081,0.171,0.143,0.067,0.069,0.079,0.036,0.061,0.05,0.03,0.057,0.06,0.173,0.037,0.044,0.116
0.085,0.312,0.037,0.038,0.03,0.055,0.09,0.07,0.171,0.06,0.078,0.051,0.073,0.135,0.025,0.043,0.049,0.08,0.082,0.058,0.089,0.055,0.064,0.075,0.069,0.086,0.08,0.17,0.142,0.066,0.068,0.076,0.034,0.06,0.048,0.03,0.056,0.059,0.17,0.035,0.043,0.114
0.081,0.311,0.036,0.037,0.03,0.053,0.085,0.066,0.169,0.059,0.075,0.049,0.069,0.133,0.025,0.042,0.048,0.078,0.08,0.056,0.087,0.051,0.06,0.071,0.068,0.083,0.078,0.167,0.14,0.064,0.068,0.073,0.032,0.059,0.047,0.029,0.056,0.058,0.166,0.035,0.042,0.111
0.079,0.311,0.036,0.037,0.03,0.052,0.08,0.065,0.167,0.057,0.073,0.047,0.066,0.132,0.023,0.041,0.049,0.077,0.079,0.056,0.087,0.048,0.058,0.068,0.066,0.081,0.076,0.164,0.138,0.063,0.066,0.071,0.03,0.057,0.045,0.026,0.054,0.057,0.162,0.033,0.04,0.107
0.077,0.308,0.036,0.035,0.03,0.051,0.077,0.063,0.165,0.056,0.072,0.045,0.064,0.131,0.022,0.04,0.047,0.075,0.079,0.053,0.085,0.044,0.055,0.065,0.064,0.077,0.074,0.161,0.136,0.06,0.064,0.068,0.029,0.055,0.044,0.026,0.052,0.055,0.158,0.031,0.039,0.105
0.076,0.308,0.035,0.035,0.03,0.05,0.075,0.061,0.163,0.056,0.069,0.044,0.063,0.13,0.022,0.04,0.048,0.075,0.079,0.053,0.084,0.042,0.054,0.063,0.064,0.075,0.072,0.16,0.136,0.059,0.063,0.066,0.028,0.054,0.043,0.025,0.052,0.056,0.155,0.031,0.038,0.102
0.074,0.308,0.036,0.036,0.031,0.05,0.073,0.06,0.162,0.055,0.068,0.044,0.061,0.13,0.022,0.039,0.048,0.073,0.079,0.052,0.083,0.041,0.051,0.061,0.062,0.075,0.071,0.157,0.135,0.058,0.062,0.064,0.026,0.053,0.041,0.024,0.051,0.054,0.151,0.03,0.037,0.099
0.072,0.309,0.036,0.036,0.032,0.049,0.07,0.06,0.161,0.055,0.067,0.043,0.06,0.13,0.022,0.039,0.048,0.073,0.077,0.052,0.081,0.039,0.05,0.058,0.061,0.072,0.069,0.156,0.132,0.056,0.061,0.062,0.025,0.052,0.041,0.024,0.049,0.053,0.148,0.028,0.036,0.096
0.07,0.308,0.035,0.035,0.031,0.048,0.068,0.058,0.158,0.053,0.065,0.041,0.059,0.128,0.021,0.038,0.047,0.07,0.078,0.049,0.081,0.036,0.048,0.055,0.06,0.07,0.068,0.153,0.131,0.055,0.06,0.061,0.023,0.051,0.039,0.023,0.049,0.052,0.143,0.027,0.035,0.093
0.068,0.306,0.035,0.035,0.031,0.045,0.064,0.056,0.156,0.051,0.063,0.04,0.057,0.127,0.02,0.036,0.047,0.069,0.077,0.048,0.081,0.036,0.048,0.055,0.06,0.068,0.067,0.151,0.132,0.055,0.061,0.06,0.024,0.05,0.039,0.023,0.049,0.052,0.141,0.027,0.034,0.09
0.066,0.305,0.034,0.034,0.031,0.045,0.061,0.053,0.154,0.05,0.061,0.038,0.055,0.127,0.019,0.036,0.045,0.068,0.076,0.046,0.079,0.035,0.046,0.053,0.058,0.066,0.065,0.148,0.129,0.052,0.059,0.058,0.023,0.049,0.039,0.022,0.049,0.052,0.137,0.026,0.033,0.085
0.065,0.304,0.034,0.034,0.032,0.045,0.06,0.053,0.152,0.05,0.06,0.038,0.054,0.127,0.019,0.036,0.046,0.067,0.076,0.046,0.079,0.034,0.045,0.051,0.058,0.064,0.064,0.147,0.129,0.051,0.059,0.056,0.022,0.048,0.038,0.021,0.048,0.05,0.134,0.026,0.033,0.083
0.063,0.302,0.034,0.033,0.032,0.044,0.058,0.051,0.149,0.048,0.058,0.037,0.053,0.126,0.018,0.035,0.045,0.067,0.075,0.045,0.079,0.032,0.044,0.05,0.057,0.063,0.063,0.145,0.129,0.049,0.058,0.056,0.022,0.048,0.037,0.022,0.048,0.051,0.131,0.025,0.032,0.081
0.062,0.303,0.034,0.033,0.033,0.043,0.058,0.051,0.148,0.048,0.057,0.036,0.053,0.126,0.019,0.035,0.046,0.068,0.076,0.045,0.079,0.031,0.043,0.049,0.056,0.061,0.061,0.143,0.127,0.049,0.058,0.054,0.021,0.046,0.037,0.021,0.047,0.05,0.128,0.025,0.032,0.078
0.061,0.304,0.033,0.033,0.034,0.043,0.056,0.051,0.148,0.047,0.057,0.037,0.053,0.126,0.019,0.035,0.047,0.067,0.077,0.045,0.077,0.031,0.043,0.048,0.056,0.06,0.061,0.142,0.127,0.048,0.057,0.053,0.021,0.046,0.036,0.021,0.047,0.05,0.126,0.024,0.031,0.076
0.061,0.302,0.034,0.033,0.035,0.043,0.056,0.05,0.147,0.048,0.056,0.035,0.052,0.128,0.02,0.035,0.048,0.067,0.077,0.045,0.077,0.029,0.041,0.048,0.056,0.059,0.059,0.141,0.126,0.048,0.056,0.053,0.021,0.046,0.037,0.02,0.046,0.05,0.123,0.024,0.03,0.073
0.059,0.3,0.034,0.032,0.035,0.043,0.055,0.049,0.144,0.047,0.055,0.036,0.052,0.127,0.019,0.034,0.048,0.067,0.078,0.045,0.077,0.03,0.041,0.047,0.055,0.058,0.06,0.137,0.126,0.048,0.057,0.052,0.02,0.044,0.036,0.02,0.046,0.049,0.121,0.023,0.03,0.072
0.057,0.3,0.032,0.031,0.036,0.04,0.051,0.045,0.142,0.044,0.053,0.034,0.05,0.126,0.018,0.033,0.049,0.065,0.077,0.043,0.076,0.029,0.04,0.044,0.054,0.056,0.059,0.138,0.124,0.045,0.056,0.051,0.019,0.044,0.035,0.019,0.045,0.05,0.118,0.024,0.029,0.068
0.056,0.298,0.032,0.031,0.036,0.04,0.051,0.044,0.139,0.043,0.053,0.034,0.049,0.125,0.018,0.034,0.05,0.065,0.078,0.042,0.076,0.028,0.039,0.044,0.053,0.054,0.058,0.136,0.123,0.045,0.056,0.049,0.019,0.043,0.034,0.019,0.045,0.05,0.115,0.023,0.03,0.067
0.054,0.296,0.031,0.03,0.037,0.038,0.048,0.042,0.137,0.042,0.052,0.034,0.049,0.126,0.018,0.032,0.05,0.064,0.079,0.042,0.075,0.026,0.04,0.042,0.051,0.051,0.057,0.134,0.122,0.043,0.055,0.048,0.018,0.043,0.034,0.018,0.044,0.05,0.113,0.023,0.029,0.065
0.052,0.295,0.031,0.029,0.038,0.037,0.047,0.041,0.136,0.041,0.05,0.032,0.048,0.124,0.017,0.033,0.051,0.064,0.079,0.041,0.077,0.029,0.04,0.043,0.053,0.052,0.058,0.134,0.124,0.045,0.056,0.048,0.019,0.044,0.035,0.02,0.045,0.051,0.112,0.024,0.028,0.061
0.052,0.294,0.029,0.029,0.038,0.037,0.046,0.039,0.135,0.04,0.049,0.032,0.049,0.124,0.016,0.032,0.052,0.065,0.079,0.041,0.076,0.028,0.039,0.042,0.051,0.051,0.057,0.133,0.123,0.042,0.057,0.047,0.018,0.042,0.035,0.018,0.044,0.052,0.109,0.023,0.028,0.06
0.051,0.293,0.029,0.028,0.037,0.035,0.045,0.039,0.133,0.037,0.049,0.032,0.046,0.125,0.017,0.032,0.051,0.064,0.079,0.04,0.075,0.026,0.039,0.04,0.052,0.049,0.057,0.132,0.121,0.042,0.053,0.046,0.017,0.042,0.033,0.017,0.043,0.05,0.107,0.022,0.029,0.058
0.051,0.292,0.029,0.028,0.037,0.035,0.044,0.038,0.133,0.037,0.048,0.032,0.048,0.124,0.018,0.033,0.05,0.064,0.079,0.04,0.074,0.024,0.037,0.038,0.051,0.048,0.055,0.13,0.12,0.04,0.053,0.044,0.015,0.04,0.032,0.017,0.043,0.049,0.105,0.021,0.028,0.056
0.05,0.291,0.03,0.028,0.035,0.034,0.043,0.036,0.129,0.037,0.047,0.031,0.048,0.125,0.016,0.032,0.049,0.064,0.078,0.04,0.075,0.026,0.038,0.041,0.05,0.048,0.055,0.131,0.119,0.04,0.054,0.046,0.017,0.041,0.034,0.017,0.042,0.049,0.103,0.022,0.026,0.054
0.047,0.29,0.029,0.027,0.034,0.033,0.041,0.034,0.128,0.034,0.047,0.03,0.048,0.123,0.017,0.03,0.045,0.063,0.077,0.039,0.073,0.025,0.037,0.039,0.05,0.046,0.054,0.129,0.119,0.041,0.054,0.045,0.017,0.041,0.033,0.017,0.042,0.048,0.101,0.021,0.025,0.052
0.048,0.29,0.03,0.027,0.034,0.032,0.041,0.034,0.128,0.034,0.048,0.032,0.047,0.124,0.018,0.031,0.045,0.064,0.076,0.04,0.073,0.024,0.037,0.038,0.05,0.046,0.052,0.127,0.119,0.04,0.052,0.044,0.016,0.04,0.033,0.017,0.042,0.047,0.099,0.02,0.025,0.05
0.047,0.287,0.029,0.027,0.033,0.032,0.04,0.033,0.127,0.032,0.047,0.033,0.047,0.125,0.018,0.032,0.045,0.063,0.075,0.041,0.075,0.027,0.038,0.037,0.051,0.046,0.053,0.129,0.117,0.039,0.054,0.044,0.017,0.041,0.034,0.017,0.043,0.046,0.1,0.019,0.025,0.047
0.046,0.285,0.028,0.024,0.031,0.031,0.038,0.032,0.122,0.029,0.046,0.03,0.045,0.122,0.016,0.029,0.042,0.062,0.072,0.038,0.073,0.024,0.037,0.038,0.05,0.045,0.052,0.126,0.116,0.037,0.053,0.042,0.016,0.039,0.033,0.016,0.041,0.043,0.098,0.02,0.025,0.046
0.046,0.285,0.027,0.021,0.027,0.024,0.036,0.026,0.141,0.028,0.044,0.026,0.044,0.142,0.012,0.025,0.045,0.065,0.081,0.037,0.077,0.019,0.033,0.036,0.045,0.042,0.045,0.144,0.128,0.038,0.052,0.041,0.012,0.036,0.031,0.013,0.042,0.039,0.09,0.015,0.022,0.042
0.044,0.284,0.025,0.018,0.026,0.023,0.033,0.024,0.138,0.026,0.044,0.026,0.041,0.141,0.009,0.024,0.042,0.062,0.076,0.035,0.076,0.018,0.032,0.038,0.044,0.039,0.049,0.141,0.127,0.038,0.051,0.04,0.015,0.038,0.033,0.015,0.042,0.039,0.091,0.017,0.022,0.039
0.043,0.283,0.025,0.019,0.026,0.021,0.033,0.022,0.138,0.025,0.044,0.025,0.044,0.143,0.011,0.026,0.044,0.064,0.078,0.035,0.079,0.02,0.034,0.036,0.045,0.043,0.047,0.144,0.128,0.038,0.051,0.041,0.013,0.037,0.033,0.014,0.042,0.038,0.089,0.015,0.021,0.038
0.044,0.279,0.026,0.02,0.025,0.021,0.033,0.021,0.134,0.025,0.043,0.025,0.043,0.142,0.011,0.025,0.042,0.063,0.076,0.032,0.078,0.018,0.033,0.035,0.044,0.042,0.045,0.142,0.128,0.037,0.051,0.039,0.012,0.037,0.031,0.014,0.043,0.037,0.088,0.016,0.022,0.038
0.043,0.277,0.024,0.019,0.025,0.019,0.03,0.019,0.133,0.023,0.042,0.025,0.042,0.14,0.011,0.024,0.042,0.064,0.075,0.032,0.078,0.02,0.033,0.035,0.045,0.042,0.045,0.14,0.125,0.037,0.05,0.04,0.012,0.037,0.031,0.013,0.042,0.037,0.088,0.017,0.019,0.034
0.042,0.274,0.024,0.019,0.024,0.018,0.03,0.019,0.132,0.021,0.042,0.024,0.041,0.141,0.01,0.024,0.042,0.062,0.076,0.032,0.077,0.018,0.033,0.034,0.044,0.04,0.045,0.141,0.124,0.035,0.048,0.038,0.011,0.035,0.03,0.012,0.04,0.036,0.086,0.013,0.019,0.032
0.041,0.274,0.024,0.019,0.023,0.018,0.027,0.018,0.13,0.021,0.042,0.025,0.042,0.141,0.01,0.023,0.041,0.062,0.076,0.032,0.077,0.018,0.031,0.033,0.045,0.04,0.044,0.14,0.124,0.035,0.048,0.039,0.012,0.035,0.03,0.012,0.04,0.035,0.084,0.014,0.019,0.031
0.041,0.275,0.024,0.018,0.023,0.018,0.026,0.017,0.13,0.021,0.042,0.025,0.042,0.142,0.011,0.024,0.042,0.06,0.076,0.033,0.077,0.018,0.032,0.034,0.044,0.041,0.044,0.14,0.124,0.035,0.048,0.039,0.012,0.036,0.031,0.011,0.041,0.035,0.084,0.012,0.019,0.03
0.041,0.274,0.026,0.019,0.024,0.017,0.026,0.018,0.13,0.02,0.042,0.025,0.043,0.142,0.012,0.024,0.042,0.064,0.075,0.032,0.077,0.019,0.033,0.034,0.044,0.041,0.043,0.141,0.124,0.035,0.048,0.038,0.011,0.034,0.031,0.011,0.039,0.033,0.083,0.013,0.018,0.03
0.04,0.272,0.025,0.018,0.022,0.016,0.025,0.018,0.131,0.02,0.042,0.025,0.042,0.141,0.011,0.022,0.042,0.061,0.076,0.033,0.075,0.015,0.03,0.032,0.043,0.039,0.042,0.138,0.123,0.033,0.046,0.037,0.011,0.032,0.029,0.009,0.038,0.032,0.08,0.01,0.019,0.03
0.042,0.272,0.024,0.018,0.021,0.015,0.024,0.016,0.127,0.018,0.041,0.025,0.042,0.14,0.01,0.021,0.042,0.061,0.075,0.031,0.076,0.019,0.031,0.034,0.044,0.04,0.043,0.14,0.123,0.033,0.046,0.038,0.011,0.034,0.03,0.012,0.039,0.033,0.082,0.013,0.018,0.027
0.04,0.267,0.023,0.016,0.02,0.014,0.022,0.015,0.126,0.016,0.04,0.024,0.041,0.141,0.009,0.019,0.041,0.06,0.073,0.029,0.074,0.017,0.03,0.032,0.043,0.039,0.042,0.137,0.123,0.033,0.045,0.037,0.011,0.033,0.029,0.01,0.038,0.032,0.08,0.011,0.016,0.025
0.04,0.268,0.024,0.017,0.019,0.013,0.023,0.014,0.125,0.015,0.04,0.022,0.041,0.138,0.01,0.02,0.041,0.059,0.073,0.029,0.074,0.018,0.032,0.034,0.043,0.04,0.042,0.138,0.123,0.033,0.046,0.036,0.013,0.034,0.03,0.011,0.039,0.033,0.08,0.012,0.016,0.024
0.04,0.269,0.023,0.016,0.02,0.012,0.021,0.013,0.125,0.016,0.04,0.024,0.041,0.139,0.009,0.02,0.041,0.059,0.072,0.029,0.076,0.019,0.032,0.034,0.043,0.039,0.043,0.137,0.123,0.033,0.045,0.037,0.012,0.033,0.031,0.011,0.038,0.034,0.079,0.011,0.014,0.023
0.038,0.266,0.024,0.017,0.021,0.011,0.021,0.013,0.124,0.016,0.041,0.024,0.041,0.139,0.009,0.02,0.041,0.059,0.073,0.029,0.074,0.017,0.031,0.033,0.042,0.038,0.041,0.137,0.122,0.033,0.044,0.037,0.011,0.032,0.03,0.01,0.038,0.031,0.079,0.011,0.016,0.024
0.038,0.265,0.023,0.017,0.019,0.011,0.02,0.012,0.125,0.015,0.039,0.024,0.04,0.138,0.008,0.019,0.04,0.059,0.071,0.028,0.074,0.016,0.032,0.033,0.042,0.038,0.041,0.137,0.122,0.031,0.043,0.035,0.01,0.032,0.028,0.009,0.037,0.031,0.078,0.01,0.015,0.022
0.038,0.265,0.024,0.017,0.019,0.01,0.019,0.012,0.123,0.014,0.039,0.023,0.04,0.138,0.008,0.018,0.04,0.058,0.07,0.029,0.073,0.015,0.03,0.033,0.042,0.038,0.041,0.137,0.121,0.032,0.043,0.037,0.009,0.031,0.029,0.009,0.036,0.03,0.078,0.01,0.014,0.022
0.04,0.265,0.025,0.018,0.019,0.012,0.021,0.013,0.124,0.017,0.04,0.025,0.041,0.14,0.01,0.02,0.042,0.058,0.071,0.03,0.071,0.015,0.029,0.032,0.041,0.036,0.04,0.135,0.12,0.03,0.04,0.035,0.008,0.031,0.027,0.008,0.036,0.029,0.076,0.01,0.014,0.02
0.04,0.262,0.024,0.019,0.019,0.011,0.02,0.013,0.124,0.015,0.04,0.025,0.041,0.138,0.009,0.019,0.041,0.058,0.071,0.029,0.072,0.016,0.029,0.032,0.04,0.037,0.04,0.134,0.118,0.03,0.041,0.035,0.01,0.031,0.028,0.007,0.036,0.029,0.075,0.008,0.014,0.02
0.04,0.261,0.025,0.017,0.018,0.01,0.019,0.012,0.122,0.015,0.039,0.024,0.041,0.139,0.009,0.019,0.042,0.058,0.07,0.028,0.072,0.016,0.03,0.031,0.04,0.036,0.04,0.136,0.119,0.03,0.041,0.035,0.01,0.03,0.028,0.007,0.035,0.029,0.077,0.008,0.014,0.02
0.039,0.259,0.026,0.016,0.018,0.01,0.018,0.012,0.121,0.015,0.038,0.024,0.04,0.136,0.009,0.017,0.04,0.056,0.07,0.027,0.073,0.016,0.03,0.032,0.042,0.039,0.04,0.135,0.119,0.032,0.041,0.036,0.012,0.031,0.028,0.008,0.036,0.029,0.076,0.009,0.014,0.02
0.039,0.259,0.027,0.017,0.018,0.009,0.017,0.013,0.121,0.015,0.039,0.023,0.041,0.136,0.009,0.017,0.04,0.056,0.069,0.025,0.072,0.014,0.029,0.032,0.04,0.036,0.038,0.134,0.118,0.03,0.041,0.035,0.01,0.03,0.027,0.008,0.035,0.027,0.075,0.008,0.011,0.018
0.038,0.258,0.026,0.017,0.018,0.01,0.017,0.012,0.121,0.013,0.037,0.023,0.039,0.135,0.009,0.016,0.04,0.056,0.068,0.027,0.071,0.015,0.031,0.032,0.039,0.037,0.04,0.134,0.118,0.03,0.039,0.034,0.012,0.031,0.028,0.008,0.037,0.029,0.075,0.008,0.012,0.018
0.038,0.255,0.026,0.017,0.016,0.009,0.017,0.011,0.119,0.014,0.037,0.023,0.04,0.135,0.007,0.017,0.04,0.055,0.067,0.024,0.069,0.014,0.029,0.032,0.039,0.037,0.039,0.133,0.119,0.029,0.04,0.034,0.01,0.031,0.028,0.008,0.037,0.027,0.074,0.008,0.011,0.018
0.04,0.256,0.027,0.018,0.017,0.01,0.017,0.013,0.12,0.014,0.039,0.024,0.04,0.136,0.009,0.017,0.041,0.055,0.067,0.025,0.069,0.015,0.028,0.03,0.038,0.035,0.038,0.131,0.117,0.029,0.038,0.033,0.009,0.029,0.026,0.005,0.034,0.026,0.073,0.006,0.011,0.017
0.04,0.255,0.027,0.017,0.018,0.009,0.016,0.012,0.12,0.014,0.038,0.023,0.041,0.136,0.008,0.017,0.04,0.054,0.067,0.026,0.07,0.015,0.03,0.031,0.039,0.036,0.039,0.133,0.117,0.028,0.039,0.034,0.01,0.029,0.028,0.006,0.035,0.027,0.073,0.007,0.01,0.016
0.04,0.252,0.027,0.018,0.017,0.009,0.017,0.012,0.119,0.014,0.038,0.023,0.04,0.135,0.008,0.016,0.039,0.054,0.067,0.025,0.07,0.015,0.028,0.03,0.039,0.036,0.038,0.133,0.116,0.03,0.038,0.033,0.009,0.028,0.027,0.006,0.035,0.026,0.072,0.007,0.01,0.017
0.04,0.252,0.028,0.019,0.017,0.009,0.016,0.012,0.12,0.014,0.037,0.023,0.04,0.134,0.008,0.015,0.04,0.053,0.068,0.024,0.07,0.014,0.028,0.03,0.039,0.035,0.038,0.133,0.115,0.029,0.038,0.034,0.01,0.028,0.027,0.007,0.035,0.025,0.073,0.006,0.011,0.017
0.04,0.252,0.028,0.018,0.016,0.01,0.017,0.013,0.119,0.014,0.038,0.023,0.04,0.135,0.008,0.015,0.04,0.053,0.067,0.025,0.069,0.014,0.028,0.031,0.039,0.035,0.038,0.133,0.115,0.029,0.037,0.033,0.011,0.029,0.027,0.006,0.035,0.025,0.073,0.006,0.011,0.018
0.042,0.25,0.029,0.02,0.018,0.012,0.017,0.014,0.121,0.017,0.039,0.024,0.041,0.134,0.009,0.016,0.041,0.054,0.067,0.026,0.07,0.013,0.029,0.03,0.039,0.035,0.036,0.133,0.116,0.028,0.037,0.034,0.011,0.029,0.027,0.007,0.035,0.026,0.074,0.008,0.01,0.017
0.042,0.252,0.029,0.019,0.019,0.012,0.018,0.015,0.12,0.017,0.037,0.024,0.04,0.134,0.009,0.016,0.041,0.053,0.067,0.026,0.07,0.014,0.029,0.032,0.039,0.036,0.038,0.133,0.117,0.029,0.038,0.033,0.01,0.029,0.027,0.007,0.035,0.027,0.073,0.007,0.01,0.018
0.041,0.25,0.028,0.019,0.018,0.011,0.017,0.014,0.119,0.015,0.036,0.023,0.04,0.132,0.007,0.014,0.039,0.052,0.064,0.024,0.068,0.012,0.029,0.03,0.037,0.034,0.036,0.131,0.115,0.027,0.036,0.033,0.009,0.027,0.027,0.005,0.034,0.024,0.071,0.006,0.009,0.019
0.042,0.249,0.03,0.02,0.018,0.011,0.017,0.015,0.121,0.017,0.037,0.023,0.04,0.134,0.008,0.014,0.04,0.052,0.066,0.024,0.069,0.015,0.03,0.03,0.038,0.035,0.037,0.131,0.116,0.029,0.037,0.034,0.01,0.027,0.027,0.005,0.035,0.026,0.072,0.006,0.009,0.017
0.044,0.25,0.031,0.021,0.02,0.013,0.019,0.017,0.121,0.017,0.037,0.024,0.04,0.134,0.008,0.015,0.041,0.053,0.067,0.024,0.068,0.014,0.028,0.031,0.037,0.035,0.037,0.132,0.115,0.028,0.035,0.033,0.01,0.028,0.026,0.006,0.035,0.025,0.071,0.005,0.008,0.017
0.042,0.248,0.03,0.02,0.019,0.011,0.018,0.016,0.12,0.017,0.036,0.023,0.039,0.133,0.008,0.013,0.038,0.051,0.066,0.022,0.069,0.014,0.028,0.031,0.039,0.036,0.037,0.132,0.115,0.029,0.037,0.032,0.011,0.028,0.028,0.007,0.036,0.025,0.071,0.007,0.008,0.017
0.042,0.249,0.03,0.021,0.019,0.012,0.019,0.016,0.12,0.018,0.036,0.024,0.039,0.133,0.007,0.013,0.04,0.052,0.067,0.023,0.069,0.013,0.028,0.031,0.038,0.034,0.037,0.131,0.114,0.028,0.036,0.033,0.01,0.027,0.027,0.006,0.036,0.025,0.07,0.007,0.007,0.018
0.042,0.248,0.03,0.02,0.019,0.012,0.018,0.016,0.12,0.017,0.036,0.023,0.038,0.132,0.007,0.013,0.039,0.05,0.065,0.023,0.068,0.012,0.028,0.031,0.039,0.035,0.038,0.132,0.115,0.029,0.036,0.032,0.011,0.027,0.027,0.006,0.035,0.024,0.07,0.006,0.008,0.018
0.043,0.249,0.031,0.021,0.02,0.013,0.019,0.017,0.121,0.018,0.036,0.024,0.039,0.132,0.008,0.013,0.04,0.051,0.066,0.023,0.069,0.012,0.029,0.031,0.039,0.035,0.037,0.131,0.114,0.029,0.036,0.032,0.011,0.027,0.027,0.007,0.034,0.025,0.07,0.007,0.007,0.018