File: UVVIS_Absorbance_Bulk_Solution.csv
A,B,K,M,C,P,AB,AK,AM,AC,AP,BK,BM,BC,BP,KM,KC,KP,MC,MP,CP,ABK,ABM,ABC,ABP,AKM,AKC,AKP,AMC,AMP,ACP,BKM,BKC,BKP,BMC,BMP,BCP,KMC,KMP,KCP,MCP,ABKMCP
0.092,0.359,0.147,3.644,0.498,2.21,0.347,0.2856,3.409,0.6256,2.2008,0.1722,3.3939,0.885,2.13,2.355,0.6688,1.8954,3.735,3.372,2.1483,0.495,3.843,0.8262,0.281,3.809,0.712,2.0296,3.67,3.3212,2.1825,3.383,0.4818,2.0377,3.0039,2.967,2.2154,3.5394,2.6944,1.083,2.646,2.5525
0.085,0.34,0.156,3.376,0.486,2.276,0.325,0.2898,3.283,0.60605,2.292,0.18,3.1482,0.849,2.205,2.1855,0.665,1.9929,3.49,3.408,2.2143,0.4695,3.552,0.7956,0.291,3.5906,0.702,2.1181,3.376,3.3672,2.241,3.1552,0.473,2.1197,2.8203,2.97,2.261,3.3252,2.7072,1.1134,2.652,2.4725
0.078,0.32,0.166,3.312,0.469,2.373,0.303,0.2946,2.9904,0.5831,2.3736,0.1878,2.997,0.813,2.28,2.097,0.6555,2.0787,3.3425,3.46,2.277,0.456,3.39,0.7616,0.3,3.4359,0.69,2.2066,3.258,3.3971,2.2905,3.026,0.4664,2.1976,2.703,2.985,2.3028,3.247,2.7392,1.1438,2.679,2.42
0.071,0.303,0.175,3.307,0.454,2.458,0.283,0.3,2.9316,0.56015,2.4288,0.1956,2.9079,0.777,2.33,2.0415,0.6479,2.1567,3.245,3.496,2.3199,0.444,3.279,0.7276,0.305,3.3696,0.678,2.2656,3.126,3.404,2.322,2.9444,0.4576,2.255,2.6163,3.006,2.3256,3.1331,2.7616,1.1666,2.694,2.3825
0.067,0.287,0.185,2.641,0.444,2.283,0.265,0.3072,2.7202,0.54485,2.4408,0.2034,2.781,0.75,2.35,1.968,0.646,2.1957,3.13,3.484,2.3331,0.4335,3.141,0.7004,0.306,3.0394,0.668,2.2951,3.018,3.3373,2.331,2.8594,0.4532,2.2837,2.5347,2.973,2.3256,3.009,2.7488,1.178,2.673,2.3325
0.063,0.275,0.194,2.656,0.44,2.322,0.25,0.3156,2.6432,0.53295,2.4792,0.2112,2.7027,0.732,2.38,1.9215,0.6498,2.2503,3.0425,3.492,2.3595,0.4245,3.033,0.6766,0.31,2.9978,0.668,2.3364,2.916,3.3465,2.349,2.7812,0.451,2.3206,2.4684,2.958,2.3408,2.9597,2.7488,1.197,2.667,2.2925
0.061,0.264,0.202,2.638,0.438,2.362,0.236,0.324,2.5802,0.527,2.5104,0.2184,2.5974,0.717,2.41,1.8615,0.6536,2.2971,2.9375,3.476,2.3925,0.4155,2.919,0.663,0.313,2.9367,0.67,2.3777,2.832,3.3212,2.3805,2.6894,0.451,2.3657,2.3919,2.94,2.3636,2.8713,2.7424,1.2198,2.661,2.255
0.059,0.254,0.213,2.606,0.44,2.392,0.224,0.3354,2.4654,0.52445,2.5512,0.2268,2.4651,0.708,2.45,1.7775,0.665,2.3595,2.81,3.444,2.4321,0.4065,2.769,0.6528,0.317,2.8379,0.676,2.4249,2.704,3.2982,2.4075,2.5772,0.451,2.4108,2.295,2.901,2.3902,2.7591,2.7136,1.2426,2.634,2.21
0.058,0.241,0.223,2.547,0.444,2.417,0.211,0.3474,2.3506,0.5236,2.568,0.2358,2.3139,0.696,2.46,1.68,0.6764,2.3985,2.67,3.368,2.4486,0.393,2.598,0.6426,0.318,2.7053,0.686,2.4544,2.562,3.2154,2.4255,2.4412,0.4532,2.4395,2.193,2.832,2.4016,2.6452,2.6592,1.2616,2.586,2.1525
0.058,0.229,0.236,2.462,0.452,2.421,0.199,0.3642,2.198,0.52445,2.5296,0.2466,2.1384,0.687,2.41,1.563,0.6935,2.3946,2.5,3.224,2.4123,0.3795,2.394,0.6324,0.311,2.5948,0.698,2.4249,2.398,3.0958,2.3805,2.278,0.4598,2.419,2.0655,2.706,2.3598,2.5075,2.5504,1.2578,2.487,2.0625
0.058,0.216,0.249,2.277,0.46,2.334,0.185,0.3834,2.0188,0.5287,2.3688,0.2586,1.9332,0.681,2.26,1.428,0.7144,2.3127,2.295,2.976,2.2869,0.366,2.163,0.6256,0.291,2.4232,0.716,2.2951,2.202,2.8589,2.2545,2.091,0.4642,2.3124,1.9176,2.496,2.2382,2.3392,2.3744,1.2274,2.313,1.93
0.058,0.203,0.264,2.109,0.468,2.189,0.173,0.4038,1.8424,0.53465,2.1552,0.2706,1.7361,0.672,2.055,1.302,0.7353,2.1918,2.1025,2.692,2.1153,0.3525,1.938,0.6222,0.265,2.2308,0.734,2.124,2.022,2.5875,2.0835,1.9176,0.4708,2.1689,1.7799,2.259,2.0748,2.1811,2.1664,1.178,2.118,1.7875
0.058,0.19,0.28,1.859,0.475,1.936,0.162,0.4254,1.6632,0.5372,1.9104,0.2838,1.5444,0.663,1.825,1.179,0.7543,2.0436,1.915,2.376,1.9107,0.3405,1.722,0.612,0.235,2.0449,0.75,1.9175,1.838,2.2954,1.89,1.7442,0.4774,1.9967,1.6422,2.004,1.8848,2.0213,1.9488,1.121,1.902,1.6425
0.058,0.178,0.296,1.65,0.48,1.701,0.151,0.4464,1.505,0.53975,1.6776,0.297,1.377,0.654,1.61,1.074,0.7752,1.9032,1.7475,2.092,1.7193,0.33,1.533,0.6052,0.208,1.8889,0.768,1.7287,1.684,2.0194,1.71,1.598,0.484,1.8368,1.5249,1.767,1.7062,1.8853,1.7472,1.0716,1.701,1.5125
0.058,0.168,0.312,1.454,0.488,1.496,0.141,0.4698,1.358,0.54145,1.4688,0.312,1.2231,0.645,1.41,0.9825,0.7961,1.7862,1.6,1.828,1.5444,0.321,1.359,0.5984,0.183,1.7355,0.786,1.5635,1.542,1.7664,1.5435,1.4688,0.4928,1.6933,1.4178,1.548,1.5428,1.768,1.5616,1.026,1.521,1.395
0.058,0.157,0.332,1.287,0.494,1.312,0.131,0.4956,1.2166,0.544,1.2816,0.3294,1.08,0.639,1.235,0.8985,0.8208,1.6926,1.465,1.588,1.386,0.315,1.2,0.5916,0.161,1.5951,0.806,1.416,1.41,1.5341,1.395,1.3464,0.5016,1.5744,1.3158,1.35,1.3984,1.6575,1.3952,0.988,1.353,1.29
0.058,0.146,0.356,1.112,0.503,1.142,0.121,0.5256,1.078,0.54995,1.1232,0.3498,0.9504,0.636,1.085,0.8265,0.8493,1.6263,1.3375,1.364,1.2573,0.3105,1.053,0.5882,0.142,1.4521,0.832,1.298,1.296,1.3271,1.269,1.241,0.5148,1.4842,1.2291,1.161,1.2768,1.5657,1.2448,0.969,1.197,1.2025
0.058,0.136,0.381,0.967,0.513,1.008,0.112,0.558,0.9478,0.56015,0.9984,0.372,0.837,0.633,0.965,0.768,0.8816,1.5912,1.235,1.176,1.155,0.3105,0.927,0.5882,0.126,1.326,0.864,1.2154,1.198,1.1477,1.1745,1.156,0.5302,1.4227,1.1577,1.005,1.1818,1.4977,1.1168,0.9614,1.068,1.13
0.057,0.128,0.404,0.855,0.523,0.907,0.104,0.5892,0.8344,0.5712,0.9024,0.3936,0.7479,0.633,0.87,0.726,0.912,1.5756,1.155,1.028,1.0758,0.3105,0.828,0.5848,0.114,1.2155,0.894,1.1505,1.124,1.0074,1.098,1.0914,0.5456,1.3858,1.1067,0.882,1.1058,1.4484,1.0208,0.9614,0.969,1.0775
0.057,0.121,0.428,0.766,0.532,0.82,0.098,0.6186,0.7378,0.5814,0.828,0.414,0.6804,0.633,0.8,0.6975,0.9424,1.5678,1.0975,0.912,1.0164,0.3135,0.753,0.5848,0.105,1.1258,0.922,1.1092,1.074,0.897,1.044,1.0506,0.5588,1.3571,1.0659,0.783,1.0488,1.4178,0.9472,0.9652,0.891,1.0375
0.056,0.116,0.448,0.71,0.543,0.757,0.093,0.6474,0.658,0.59075,0.7632,0.4338,0.6318,0.636,0.735,0.681,0.9728,1.5717,1.0575,0.82,0.9669,0.318,0.699,0.5882,0.097,1.0504,0.948,1.0738,1.038,0.8073,0.9945,1.0234,0.5742,1.3366,1.0404,0.705,0.9994,1.4008,0.8896,0.969,0.828,1.0075
0.056,0.113,0.468,0.668,0.56,0.698,0.09,0.675,0.5894,0.6035,0.708,0.453,0.5967,0.651,0.685,0.6735,1.007,1.5756,1.0375,0.74,0.9306,0.324,0.66,0.5984,0.09,0.9906,0.98,1.0443,1.02,0.7337,0.9585,1.0064,0.5918,1.3243,1.0353,0.642,0.9652,1.4008,0.8448,0.9804,0.78,0.99
0.056,0.111,0.489,0.639,0.584,0.639,0.089,0.7008,0.5362,0.6222,0.6576,0.4722,0.5778,0.669,0.635,0.6735,1.0488,1.5834,1.035,0.676,0.8976,0.3315,0.636,0.6154,0.084,0.9451,1.016,1.0207,1.02,0.6739,0.9315,1.0064,0.6138,1.3161,1.0404,0.588,0.9386,1.4178,0.8096,0.9956,0.744,0.9825
0.057,0.111,0.507,0.625,0.611,0.587,0.088,0.7278,0.4914,0.64515,0.6072,0.4908,0.5643,0.696,0.59,0.6795,1.0944,1.5951,1.045,0.62,0.8712,0.3405,0.624,0.6358,0.078,0.9087,1.056,0.9971,1.032,0.6187,0.909,1.0132,0.6358,1.2997,1.0557,0.543,0.9158,1.445,0.7776,1.0108,0.714,0.98
0.059,0.112,0.529,0.616,0.643,0.527,0.088,0.7578,0.4452,0.67235,0.552,0.5112,0.5589,0.729,0.54,0.69,1.1457,1.6029,1.0625,0.56,0.8382,0.351,0.618,0.663,0.072,0.8749,1.102,0.9676,1.052,0.5635,0.882,1.0268,0.6622,1.2915,1.0812,0.498,0.893,1.4824,0.7488,1.026,0.684,0.98
0.06,0.113,0.546,0.613,0.664,0.472,0.089,0.7818,0.4102,0.68935,0.5064,0.5274,0.5589,0.75,0.5,0.7005,1.1818,1.6068,1.0775,0.516,0.8118,0.36,0.615,0.68,0.067,0.8489,1.13,0.944,1.068,0.5198,0.855,1.0404,0.682,1.2751,1.0965,0.462,0.8702,1.5079,0.7264,1.0374,0.66,0.98
0.063,0.115,0.557,0.61,0.672,0.426,0.089,0.7992,0.3794,0.69275,0.4632,0.5376,0.5562,0.756,0.46,0.7065,1.1989,1.6029,1.08,0.476,0.7788,0.366,0.615,0.6834,0.063,0.8229,1.144,0.9204,1.07,0.4807,0.8235,1.0506,0.693,1.2628,1.1016,0.432,0.8398,1.5198,0.704,1.0374,0.633,0.9725
0.065,0.115,0.559,0.603,0.667,0.391,0.09,0.8058,0.3528,0.6834,0.4272,0.5412,0.5535,0.753,0.43,0.705,1.197,1.5873,1.0675,0.444,0.7458,0.3675,0.609,0.68,0.059,0.7969,1.138,0.8909,1.058,0.4531,0.792,1.0472,0.693,1.2423,1.0965,0.408,0.8094,1.5113,0.6816,1.0298,0.609,0.9575
0.067,0.117,0.557,0.593,0.663,0.364,0.09,0.8058,0.3332,0.67065,0.4032,0.5394,0.5481,0.744,0.41,0.6975,1.1875,1.5639,1.0525,0.424,0.7194,0.366,0.603,0.6732,0.056,0.7735,1.126,0.8732,1.042,0.4324,0.765,1.0404,0.6886,1.2218,1.0863,0.393,0.7866,1.4943,0.6656,1.0184,0.591,0.9425
0.069,0.118,0.551,0.584,0.665,0.343,0.092,0.8004,0.3164,0.66215,0.384,0.534,0.5427,0.747,0.395,0.6885,1.1818,1.5366,1.045,0.408,0.7029,0.363,0.597,0.6732,0.054,0.7514,1.116,0.8496,1.032,0.4186,0.7515,1.0336,0.6864,1.2013,1.0812,0.384,0.7752,1.4824,0.6528,1.007,0.579,0.925
0.07,0.121,0.544,0.578,0.676,0.327,0.094,0.7938,0.3038,0.66215,0.3696,0.528,0.5427,0.759,0.38,0.681,1.1856,1.5132,1.0475,0.4,0.6963,0.3615,0.597,0.68,0.053,0.7306,1.114,0.8319,1.034,0.4094,0.747,1.0268,0.6864,1.1849,1.0863,0.378,0.7714,1.479,0.6432,0.9956,0.576,0.915
0.072,0.125,0.536,0.576,0.693,0.313,0.096,0.7854,0.2912,0.6681,0.3576,0.5214,0.5427,0.777,0.375,0.6735,1.1951,1.4898,1.06,0.392,0.6963,0.3615,0.597,0.697,0.052,0.7111,1.118,0.8142,1.044,0.4025,0.7515,1.0234,0.6908,1.1685,1.0965,0.375,0.7752,1.4824,0.6336,0.988,0.579,0.9075
0.074,0.13,0.525,0.575,0.707,0.302,0.1,0.774,0.2786,0.67575,0.3456,0.5112,0.5481,0.798,0.37,0.666,1.2008,1.4586,1.075,0.392,0.6963,0.36,0.6,0.714,0.051,0.689,1.118,0.7965,1.056,0.4002,0.7515,1.0166,0.693,1.148,1.1118,0.375,0.7828,1.4824,0.624,0.9766,0.582,0.8975
0.077,0.135,0.509,0.57,0.708,0.291,0.104,0.7542,0.266,0.67405,0.336,0.4968,0.5481,0.804,0.365,0.6525,1.1894,1.4157,1.075,0.388,0.693,0.3555,0.603,0.7174,0.05,0.6643,1.106,0.7788,1.054,0.3979,0.7515,1.0064,0.6864,1.1193,1.1118,0.378,0.7828,1.4654,0.6144,0.9576,0.582,0.8825
0.079,0.139,0.486,0.553,0.684,0.282,0.108,0.7266,0.2548,0.6528,0.3288,0.4746,0.5427,0.789,0.36,0.627,1.1457,1.3572,1.045,0.388,0.6732,0.345,0.594,0.7038,0.05,0.6344,1.066,0.7493,1.022,0.3979,0.729,0.9792,0.6644,1.0824,1.0863,0.378,0.7676,1.4161,0.6016,0.9234,0.573,0.8525
0.081,0.144,0.456,0.519,0.638,0.275,0.112,0.6894,0.2436,0.61115,0.3192,0.447,0.5238,0.747,0.36,0.5895,1.0735,1.287,0.9825,0.384,0.6435,0.33,0.573,0.6698,0.05,0.5993,1,0.7139,0.958,0.3956,0.6975,0.935,0.6292,1.0332,1.0302,0.378,0.741,1.3294,0.5824,0.874,0.555,0.81
0.084,0.148,0.42,0.468,0.577,0.27,0.115,0.6462,0.2324,0.55335,0.312,0.4146,0.4941,0.693,0.355,0.54,0.9823,1.2012,0.895,0.384,0.6072,0.309,0.54,0.6222,0.05,0.5629,0.912,0.6726,0.87,0.391,0.6615,0.8738,0.5852,0.9758,0.9588,0.378,0.7068,1.2172,0.5568,0.817,0.528,0.7575
0.086,0.152,0.384,0.411,0.517,0.266,0.119,0.5988,0.2226,0.4913,0.3072,0.3792,0.4563,0.636,0.355,0.483,0.8835,1.1115,0.7975,0.38,0.5676,0.288,0.495,0.5746,0.049,0.5226,0.822,0.6313,0.77,0.3864,0.621,0.8058,0.539,0.9184,0.8772,0.375,0.6688,1.0948,0.5312,0.7562,0.504,0.6975
0.089,0.158,0.348,0.354,0.471,0.264,0.123,0.5532,0.2128,0.44115,0.3024,0.3444,0.4212,0.594,0.36,0.426,0.8018,1.0257,0.7125,0.376,0.5379,0.267,0.453,0.5406,0.05,0.4836,0.742,0.59,0.682,0.3818,0.5895,0.7378,0.4972,0.861,0.8058,0.372,0.646,0.9826,0.5056,0.6992,0.483,0.6425
0.092,0.166,0.311,0.296,0.441,0.264,0.129,0.5088,0.2044,0.4063,0.3,0.3108,0.3861,0.57,0.36,0.372,0.7372,0.9438,0.645,0.376,0.5214,0.249,0.417,0.5202,0.05,0.4459,0.68,0.5546,0.612,0.3772,0.5715,0.6732,0.4664,0.8077,0.7497,0.372,0.6308,0.8891,0.48,0.6498,0.468,0.5925
0.096,0.176,0.274,0.245,0.432,0.264,0.137,0.4614,0.196,0.38675,0.3024,0.2742,0.3591,0.567,0.37,0.3165,0.6878,0.8541,0.595,0.372,0.5148,0.2325,0.384,0.5168,0.051,0.4069,0.63,0.5192,0.56,0.3726,0.567,0.6086,0.44,0.7503,0.7089,0.369,0.6308,0.8058,0.4544,0.6004,0.462,0.5475
0.1,0.187,0.235,0.199,0.438,0.266,0.146,0.4182,0.1904,0.38505,0.3048,0.2412,0.3375,0.582,0.38,0.2685,0.6593,0.7722,0.57,0.368,0.5214,0.219,0.36,0.5304,0.053,0.3705,0.6,0.4838,0.532,0.368,0.5715,0.5576,0.4246,0.7011,0.6885,0.369,0.646,0.748,0.4288,0.5586,0.462,0.51
0.107,0.204,0.197,0.163,0.452,0.269,0.159,0.3696,0.1834,0.3927,0.3096,0.2022,0.324,0.615,0.4,0.2175,0.6365,0.6786,0.555,0.36,0.5379,0.207,0.345,0.5576,0.055,0.3302,0.574,0.4484,0.514,0.3588,0.5895,0.5032,0.4092,0.6478,0.6834,0.369,0.6726,0.6902,0.4,0.513,0.465,0.475
0.114,0.222,0.159,0.134,0.457,0.274,0.173,0.3288,0.1806,0.3978,0.3144,0.168,0.3186,0.639,0.415,0.177,0.6099,0.6006,0.54,0.348,0.5478,0.1965,0.342,0.5814,0.057,0.2977,0.548,0.4189,0.502,0.3496,0.5985,0.4624,0.396,0.5986,0.6783,0.366,0.6954,0.6409,0.3712,0.475,0.462,0.445
0.123,0.24,0.128,0.114,0.445,0.28,0.187,0.2952,0.1806,0.39185,0.3216,0.1386,0.3186,0.648,0.435,0.1425,0.5681,0.5304,0.515,0.336,0.5478,0.1875,0.342,0.5882,0.059,0.2704,0.512,0.3953,0.478,0.3404,0.5985,0.4318,0.3784,0.5658,0.663,0.363,0.703,0.5865,0.3424,0.437,0.45,0.415
0.133,0.259,0.101,0.098,0.413,0.287,0.201,0.2682,0.182,0.36975,0.3288,0.1128,0.3213,0.633,0.455,0.1125,0.5111,0.468,0.475,0.324,0.5379,0.1785,0.351,0.578,0.062,0.2496,0.464,0.3776,0.444,0.3289,0.5895,0.408,0.3564,0.5371,0.6426,0.36,0.703,0.5219,0.3136,0.399,0.432,0.3875
0.144,0.277,0.079,0.087,0.374,0.295,0.215,0.2508,0.1848,0.34,0.336,0.0936,0.3294,0.609,0.475,0.093,0.4503,0.4251,0.4275,0.316,0.5214,0.1725,0.36,0.561,0.064,0.2353,0.414,0.3599,0.402,0.3197,0.5715,0.391,0.3322,0.5125,0.6171,0.36,0.6954,0.459,0.2944,0.3648,0.411,0.3625
0.155,0.294,0.062,0.079,0.324,0.303,0.228,0.2388,0.1918,0.2992,0.3432,0.0774,0.3375,0.579,0.495,0.075,0.3838,0.3861,0.375,0.304,0.4983,0.165,0.369,0.5304,0.067,0.2262,0.356,0.3481,0.354,0.3128,0.549,0.3808,0.3058,0.5002,0.5814,0.36,0.6802,0.391,0.2752,0.3306,0.387,0.3375
0.168,0.314,0.047,0.071,0.269,0.313,0.243,0.2322,0.1988,0.255,0.3528,0.0648,0.3483,0.543,0.515,0.06,0.3173,0.3588,0.3175,0.3,0.4752,0.1605,0.381,0.5032,0.069,0.221,0.298,0.3422,0.302,0.3059,0.522,0.374,0.2816,0.4961,0.5508,0.363,0.665,0.3264,0.2592,0.304,0.363,0.315
0.183,0.336,0.036,0.064,0.213,0.325,0.259,0.2316,0.21,0.20655,0.3624,0.0546,0.3618,0.507,0.54,0.048,0.2489,0.3393,0.26,0.296,0.4554,0.1575,0.399,0.4726,0.072,0.221,0.24,0.3422,0.248,0.3036,0.4995,0.374,0.2574,0.4961,0.5202,0.369,0.6498,0.2635,0.2496,0.2774,0.339,0.2975
0.2,0.359,0.026,0.058,0.164,0.339,0.276,0.2358,0.2226,0.1649,0.3768,0.0474,0.378,0.48,0.565,0.039,0.1919,0.3276,0.21,0.296,0.4356,0.1575,0.417,0.4488,0.076,0.2249,0.19,0.3422,0.202,0.3036,0.477,0.3808,0.2398,0.5002,0.4947,0.375,0.6422,0.2091,0.24,0.2584,0.321,0.2825
0.215,0.381,0.02,0.054,0.128,0.352,0.293,0.2436,0.2366,0.1309,0.3912,0.0426,0.3969,0.462,0.595,0.0315,0.1463,0.3198,0.17,0.3,0.4257,0.159,0.438,0.4318,0.079,0.2327,0.152,0.3481,0.166,0.3082,0.4635,0.3876,0.2288,0.5125,0.4794,0.387,0.6384,0.1683,0.24,0.2432,0.309,0.2725
0.23,0.403,0.016,0.05,0.101,0.367,0.311,0.2538,0.2492,0.10625,0.4056,0.0396,0.4158,0.456,0.62,0.027,0.114,0.3198,0.14,0.304,0.4224,0.162,0.456,0.4284,0.083,0.2405,0.124,0.354,0.138,0.3128,0.459,0.4012,0.2222,0.5289,0.4743,0.399,0.646,0.1377,0.24,0.2356,0.3,0.27
0.244,0.426,0.013,0.047,0.081,0.382,0.327,0.2646,0.2618,0.0901,0.42,0.0384,0.4347,0.456,0.65,0.0225,0.0912,0.3237,0.12,0.312,0.4224,0.1665,0.477,0.4284,0.086,0.2496,0.104,0.3658,0.12,0.3197,0.459,0.4114,0.22,0.5494,0.4743,0.414,0.6574,0.1156,0.24,0.2318,0.297,0.2675
0.259,0.449,0.011,0.045,0.067,0.398,0.344,0.2754,0.2744,0.0782,0.4368,0.0378,0.4536,0.462,0.68,0.0195,0.0741,0.3276,0.105,0.32,0.429,0.1725,0.498,0.4352,0.09,0.2587,0.092,0.3776,0.106,0.3289,0.4635,0.4284,0.2222,0.5699,0.4845,0.426,0.6688,0.1003,0.24,0.2318,0.3,0.27
0.271,0.47,0.009,0.043,0.057,0.413,0.36,0.2868,0.2856,0.0697,0.4536,0.0372,0.4725,0.474,0.71,0.0165,0.0627,0.3354,0.0925,0.324,0.4356,0.177,0.519,0.442,0.094,0.2691,0.082,0.3894,0.096,0.3358,0.4725,0.442,0.2244,0.5904,0.4947,0.441,0.6878,0.0901,0.24,0.2318,0.3,0.2725
0.286,0.495,0.008,0.041,0.049,0.432,0.379,0.2994,0.2982,0.0629,0.4728,0.0378,0.4968,0.489,0.745,0.0135,0.0532,0.3471,0.085,0.336,0.4488,0.1845,0.543,0.4556,0.098,0.2795,0.074,0.4012,0.088,0.3473,0.4815,0.459,0.2288,0.615,0.5049,0.459,0.7106,0.0799,0.2432,0.2356,0.306,0.2775
0.3,0.521,0.007,0.039,0.042,0.454,0.398,0.3126,0.3122,0.0561,0.4944,0.0384,0.5184,0.507,0.78,0.012,0.0456,0.3588,0.075,0.348,0.462,0.192,0.567,0.4692,0.103,0.2899,0.066,0.4248,0.08,0.3611,0.495,0.4794,0.2376,0.6437,0.5253,0.48,0.7372,0.0731,0.2496,0.2394,0.315,0.285
0.314,0.549,0.006,0.037,0.036,0.478,0.419,0.3258,0.3248,0.05015,0.5208,0.0396,0.5454,0.528,0.825,0.0105,0.038,0.3744,0.0675,0.364,0.4785,0.201,0.594,0.4862,0.108,0.3016,0.06,0.4484,0.074,0.3749,0.513,0.4998,0.2442,0.6765,0.5457,0.501,0.7676,0.0663,0.2592,0.2432,0.321,0.2925
0.325,0.574,0.005,0.036,0.033,0.502,0.437,0.3372,0.336,0.0459,0.5448,0.0408,0.567,0.549,0.86,0.0075,0.0342,0.39,0.0625,0.38,0.4983,0.2085,0.618,0.5032,0.113,0.3107,0.056,0.4661,0.07,0.391,0.531,0.5202,0.2508,0.7093,0.561,0.522,0.7942,0.0612,0.272,0.2508,0.333,0.3
0.335,0.596,0.005,0.035,0.031,0.528,0.453,0.3462,0.3444,0.0442,0.5712,0.042,0.5886,0.567,0.9,0.003,0.0323,0.4056,0.06,0.392,0.5148,0.216,0.639,0.5168,0.117,0.3185,0.054,0.4897,0.066,0.4048,0.549,0.5372,0.2596,0.738,0.5763,0.543,0.8246,0.0578,0.2848,0.2546,0.342,0.3075
0.341,0.614,0.005,0.034,0.03,0.55,0.466,0.3534,0.3514,0.04335,0.5952,0.0432,0.6048,0.585,0.935,0,0.0304,0.4251,0.0575,0.408,0.5346,0.222,0.657,0.5338,0.122,0.3237,0.052,0.5074,0.066,0.4209,0.567,0.5508,0.2662,0.7708,0.5967,0.561,0.8512,0.0561,0.2912,0.2622,0.354,0.3175
0.346,0.629,0.005,0.033,0.031,0.574,0.476,0.3576,0.3542,0.0442,0.6192,0.0438,0.6183,0.6,0.965,-0.003,0.0304,0.4368,0.0575,0.424,0.5544,0.2265,0.669,0.544,0.126,0.3276,0.052,0.531,0.066,0.4347,0.585,0.561,0.2706,0.7913,0.6069,0.579,0.874,0.0561,0.2976,0.2698,0.363,0.325
0.348,0.64,0.004,0.032,0.032,0.595,0.485,0.36,0.357,0.0459,0.6432,0.0444,0.6291,0.612,0.995,-0.006,0.0323,0.4563,0.0575,0.436,0.5742,0.231,0.681,0.5542,0.129,0.3289,0.054,0.5487,0.066,0.4485,0.603,0.5712,0.275,0.8159,0.6171,0.594,0.8968,0.0561,0.3072,0.2736,0.375,0.335
0.348,0.649,0.004,0.032,0.034,0.621,0.49,0.3594,0.357,0.04845,0.6672,0.045,0.6372,0.621,1.025,-0.006,0.0342,0.4719,0.06,0.452,0.594,0.234,0.687,0.561,0.133,0.3289,0.056,0.5723,0.068,0.4623,0.621,0.578,0.2794,0.8364,0.6273,0.609,0.9196,0.0578,0.3264,0.2812,0.384,0.3425
0.344,0.654,0.004,0.031,0.036,0.649,0.494,0.3558,0.3528,0.051,0.696,0.0456,0.6399,0.63,1.05,-0.006,0.0361,0.4914,0.06,0.468,0.6171,0.2355,0.693,0.5678,0.136,0.325,0.058,0.5959,0.07,0.4807,0.648,0.5814,0.2816,0.861,0.6324,0.624,0.9462,0.0595,0.336,0.2926,0.399,0.355
0.335,0.654,0.004,0.03,0.037,0.679,0.493,0.3468,0.3444,0.05185,0.7248,0.0456,0.6399,0.63,1.075,-0.0075,0.0361,0.5109,0.06,0.488,0.6435,0.2355,0.69,0.5678,0.139,0.3159,0.058,0.6195,0.07,0.4991,0.6705,0.578,0.2816,0.8815,0.6324,0.639,0.9652,0.0595,0.3392,0.3002,0.411,0.365
0.322,0.648,0.004,0.029,0.036,0.708,0.487,0.3336,0.3318,0.05015,0.7512,0.045,0.6318,0.624,1.095,-0.0075,0.0361,0.5304,0.06,0.504,0.6633,0.2325,0.684,0.561,0.142,0.3042,0.058,0.6431,0.068,0.5152,0.6885,0.5746,0.2794,0.8979,0.6273,0.648,0.9804,0.0578,0.3552,0.3078,0.423,0.3725
0.306,0.636,0.004,0.028,0.035,0.736,0.477,0.3156,0.315,0.0476,0.78,0.0438,0.6183,0.609,1.11,-0.009,0.0342,0.5499,0.0575,0.52,0.6864,0.228,0.669,0.5508,0.144,0.2886,0.056,0.6667,0.066,0.5336,0.711,0.5644,0.2728,0.9102,0.6171,0.657,0.9918,0.0561,0.3712,0.3154,0.435,0.38
0.286,0.62,0.004,0.027,0.034,0.762,0.465,0.2964,0.2954,0.04505,0.804,0.0432,0.6048,0.594,1.125,-0.009,0.0342,0.5655,0.055,0.536,0.7062,0.222,0.651,0.5372,0.145,0.2717,0.054,0.6903,0.064,0.5474,0.729,0.5508,0.2662,0.9225,0.6018,0.663,0.9994,0.0544,0.3744,0.3192,0.444,0.3875
0.264,0.601,0.004,0.027,0.034,0.787,0.449,0.273,0.273,0.0442,0.828,0.042,0.5832,0.573,1.13,-0.0075,0.0323,0.5811,0.055,0.552,0.726,0.2145,0.63,0.5202,0.146,0.2496,0.054,0.7139,0.064,0.5635,0.747,0.5304,0.2574,0.9266,0.5814,0.666,1.0032,0.0544,0.3872,0.3268,0.456,0.395
0.242,0.579,0.004,0.026,0.034,0.812,0.433,0.2496,0.2506,0.0442,0.8496,0.0402,0.5616,0.552,1.135,-0.0105,0.0342,0.5967,0.055,0.564,0.7425,0.207,0.606,0.4998,0.147,0.2301,0.054,0.7316,0.064,0.5773,0.765,0.5134,0.2486,0.9266,0.561,0.666,1.007,0.0527,0.4,0.3344,0.465,0.4025
0.216,0.551,0.003,0.026,0.035,0.836,0.411,0.2232,0.2254,0.04505,0.8736,0.0384,0.5319,0.525,1.135,-0.0105,0.0342,0.6162,0.055,0.58,0.7623,0.198,0.576,0.4794,0.147,0.2054,0.054,0.7552,0.064,0.5911,0.783,0.4896,0.2398,0.9307,0.5406,0.666,1.007,0.0544,0.4064,0.342,0.477,0.41
0.187,0.517,0.003,0.025,0.037,0.863,0.386,0.1938,0.1974,0.0459,0.9,0.036,0.4995,0.492,1.13,-0.009,0.0361,0.6318,0.0575,0.596,0.7854,0.186,0.543,0.4522,0.147,0.1794,0.056,0.7729,0.064,0.6072,0.8055,0.459,0.2266,0.9307,0.51,0.666,1.007,0.0544,0.4192,0.3458,0.486,0.4175
0.158,0.477,0.003,0.024,0.039,0.89,0.358,0.165,0.1694,0.04675,0.924,0.0336,0.4617,0.459,1.125,-0.0105,0.038,0.6513,0.0575,0.608,0.8052,0.174,0.504,0.425,0.146,0.1534,0.056,0.7965,0.066,0.621,0.8235,0.4284,0.2112,0.9266,0.4794,0.66,1.0032,0.0544,0.4288,0.3534,0.498,0.4225
0.129,0.433,0.003,0.024,0.041,0.917,0.325,0.1344,0.1386,0.0476,0.948,0.0306,0.4158,0.417,1.115,-0.012,0.0399,0.6669,0.06,0.624,0.825,0.159,0.459,0.391,0.145,0.1274,0.058,0.8142,0.066,0.6348,0.846,0.391,0.1958,0.9184,0.4437,0.654,0.9956,0.0561,0.4384,0.361,0.51,0.43
0.106,0.392,0.003,0.023,0.042,0.938,0.295,0.1098,0.1148,0.04845,0.9672,0.0282,0.3753,0.378,1.105,-0.012,0.0418,0.6825,0.06,0.636,0.8415,0.1455,0.417,0.3604,0.143,0.1053,0.058,0.8319,0.068,0.6463,0.8595,0.357,0.1804,0.9102,0.408,0.648,0.988,0.0578,0.4448,0.3686,0.519,0.435
0.085,0.35,0.003,0.022,0.044,0.959,0.265,0.0888,0.0952,0.05015,0.984,0.0252,0.3348,0.339,1.09,-0.0105,0.0418,0.6942,0.06,0.644,0.858,0.1305,0.375,0.3264,0.141,0.0871,0.06,0.8496,0.068,0.6555,0.873,0.323,0.165,0.8979,0.3723,0.639,0.9766,0.0578,0.4512,0.3724,0.525,0.4375
0.068,0.312,0.003,0.022,0.046,0.975,0.236,0.0714,0.0784,0.051,0.996,0.0228,0.297,0.303,1.075,-0.0135,0.0437,0.702,0.0625,0.652,0.8712,0.117,0.333,0.2992,0.14,0.0715,0.062,0.8614,0.07,0.6624,0.8865,0.289,0.1496,0.8856,0.3417,0.63,0.9652,0.0595,0.4576,0.3762,0.531,0.44
0.054,0.275,0.003,0.021,0.048,0.988,0.208,0.0564,0.063,0.0527,1.0056,0.0204,0.2592,0.27,1.055,-0.012,0.0475,0.7098,0.065,0.656,0.8778,0.1035,0.294,0.272,0.137,0.0585,0.064,0.8673,0.072,0.6693,0.8955,0.2584,0.1364,0.8733,0.306,0.621,0.9538,0.0612,0.4608,0.38,0.537,0.4425
0.041,0.236,0.003,0.021,0.051,0.998,0.18,0.0438,0.0504,0.0544,1.0128,0.018,0.2241,0.237,1.035,-0.012,0.0494,0.7137,0.065,0.66,0.8844,0.0915,0.258,0.2414,0.135,0.0468,0.064,0.8732,0.074,0.6693,0.9,0.2244,0.1232,0.8528,0.2754,0.609,0.9386,0.0629,0.4608,0.38,0.54,0.4425
0.029,0.197,0.003,0.02,0.054,1.005,0.151,0.0324,0.0392,0.0578,1.0152,0.015,0.1863,0.201,1.01,-0.015,0.0532,0.7137,0.07,0.66,0.8877,0.078,0.216,0.2142,0.132,0.0364,0.068,0.8732,0.076,0.6693,0.9,0.1938,0.1078,0.8323,0.2397,0.591,0.9196,0.0646,0.4608,0.38,0.537,0.4425
0.02,0.164,0.003,0.02,0.057,1.005,0.127,0.0246,0.0322,0.06035,1.0104,0.0132,0.1539,0.174,0.99,-0.0135,0.0551,0.7137,0.0725,0.656,0.8811,0.0675,0.183,0.1938,0.129,0.0299,0.07,0.8732,0.078,0.6647,0.9,0.1666,0.099,0.8118,0.2142,0.579,0.9006,0.0663,0.4544,0.38,0.537,0.44
0.013,0.136,0.002,0.019,0.061,1.003,0.106,0.0186,0.0252,0.0629,1.0032,0.0114,0.1269,0.15,0.965,-0.0135,0.0589,0.7059,0.075,0.648,0.8646,0.0585,0.156,0.1734,0.126,0.0247,0.074,0.8673,0.082,0.6578,0.8955,0.1428,0.0902,0.7872,0.1938,0.564,0.8816,0.0697,0.4512,0.3762,0.531,0.435
0.009,0.114,0.002,0.018,0.065,0.997,0.088,0.0144,0.021,0.06715,0.9912,0.0096,0.1053,0.132,0.94,-0.015,0.0627,0.6981,0.0775,0.64,0.8547,0.051,0.132,0.1598,0.123,0.0208,0.078,0.8555,0.084,0.6486,0.8865,0.1224,0.0814,0.7626,0.1785,0.546,0.8626,0.0731,0.4384,0.3724,0.525,0.43
0.005,0.096,0.002,0.018,0.07,0.99,0.075,0.0114,0.0182,0.07225,0.9792,0.0084,0.0891,0.123,0.92,-0.0135,0.0684,0.6903,0.0825,0.632,0.8481,0.045,0.114,0.1496,0.12,0.0182,0.082,0.8437,0.09,0.6394,0.8775,0.1088,0.0792,0.7462,0.1683,0.537,0.8512,0.0765,0.4352,0.3686,0.519,0.4275
0.003,0.081,0.002,0.018,0.076,0.981,0.063,0.0096,0.0168,0.0782,0.9672,0.0078,0.0756,0.114,0.9,-0.015,0.0741,0.6786,0.0875,0.62,0.8316,0.0405,0.099,0.1428,0.118,0.0156,0.088,0.8319,0.094,0.6279,0.8685,0.0952,0.0748,0.7257,0.1581,0.522,0.836,0.0816,0.4256,0.3648,0.513,0.4225
0.002,0.069,0.002,0.017,0.082,0.971,0.054,0.0078,0.014,0.08415,0.9528,0.0066,0.0621,0.111,0.88,-0.015,0.0798,0.6708,0.0925,0.608,0.8151,0.0375,0.087,0.1394,0.116,0.0143,0.092,0.8201,0.1,0.6187,0.8595,0.085,0.0726,0.7093,0.153,0.51,0.8208,0.0867,0.416,0.361,0.507,0.4175
0,0.058,0.002,0.017,0.089,0.958,0.045,0.006,0.0126,0.0918,0.936,0.006,0.0513,0.108,0.86,-0.015,0.0874,0.6552,0.1,0.596,0.8052,0.0345,0.072,0.136,0.113,0.013,0.1,0.8083,0.106,0.6049,0.8505,0.0782,0.0726,0.6929,0.1479,0.498,0.8094,0.0935,0.4128,0.3572,0.501,0.4125
-0.002,0.048,0.002,0.016,0.096,0.945,0.037,0.0048,0.0112,0.09775,0.9192,0.0054,0.0432,0.105,0.84,-0.015,0.095,0.6435,0.105,0.584,0.8019,0.0315,0.063,0.1326,0.11,0.0117,0.106,0.7906,0.11,0.5911,0.837,0.068,0.0704,0.6683,0.1428,0.483,0.7942,0.0969,0.3968,0.3496,0.489,0.4075
-0.001,0.04,0.002,0.016,0.101,0.931,0.031,0.0042,0.0098,0.102,0.9024,0.0048,0.0351,0.102,0.825,-0.0165,0.0988,0.6318,0.11,0.572,0.792,0.0285,0.054,0.1292,0.108,0.0104,0.11,0.7729,0.116,0.5796,0.828,0.0612,0.0704,0.6519,0.1428,0.474,0.7828,0.1003,0.3904,0.3458,0.483,0.4025
-0.004,0.035,0.002,0.015,0.103,0.917,0.026,0.0036,0.0098,0.1037,0.8832,0.0042,0.0297,0.099,0.805,-0.015,0.1026,0.6162,0.1125,0.56,0.7722,0.027,0.048,0.1292,0.106,0.0091,0.112,0.7611,0.118,0.5681,0.8145,0.0578,0.0682,0.6355,0.1377,0.462,0.7676,0.102,0.3808,0.342,0.474,0.395
-0.003,0.031,0.002,0.015,0.103,0.903,0.022,0.003,0.0084,0.10285,0.8664,0.0042,0.0243,0.096,0.79,-0.015,0.1026,0.6045,0.11,0.552,0.7524,0.0255,0.042,0.1224,0.104,0.0091,0.11,0.7434,0.116,0.5543,0.7965,0.051,0.066,0.6191,0.1326,0.45,0.7524,0.102,0.3712,0.3344,0.462,0.3875
-0.002,0.028,0.002,0.015,0.102,0.889,0.019,0.0024,0.0084,0.10115,0.8496,0.0036,0.0216,0.09,0.775,-0.0165,0.1007,0.5928,0.11,0.54,0.7392,0.024,0.039,0.119,0.102,0.0091,0.11,0.7316,0.114,0.5451,0.783,0.0476,0.0638,0.6068,0.1275,0.441,0.7372,0.1003,0.3616,0.3268,0.456,0.3825
-0.004,0.025,0.002,0.015,0.1,0.874,0.017,0.0024,0.007,0.0986,0.8352,0.0036,0.0189,0.087,0.76,-0.015,0.0988,0.5811,0.1075,0.532,0.7326,0.0225,0.036,0.1156,0.1,0.0078,0.108,0.7198,0.112,0.5336,0.7695,0.0442,0.0638,0.5945,0.1275,0.432,0.722,0.0986,0.3552,0.323,0.447,0.3775
-0.004,0.024,0.003,0.014,0.099,0.857,0.015,0.0024,0.007,0.0969,0.816,0.0036,0.0189,0.084,0.74,-0.0165,0.0969,0.5694,0.105,0.52,0.7194,0.0225,0.033,0.1122,0.098,0.0078,0.106,0.7021,0.11,0.5221,0.7515,0.0408,0.0616,0.5781,0.1224,0.423,0.7068,0.0969,0.3456,0.3154,0.435,0.37
-0.003,0.022,0.002,0.014,0.097,0.837,0.014,0.0018,0.007,0.09605,0.7944,0.003,0.0162,0.081,0.725,-0.0165,0.095,0.5538,0.105,0.508,0.6996,0.021,0.03,0.1088,0.095,0.0078,0.104,0.6844,0.108,0.5083,0.7335,0.0408,0.0594,0.5576,0.1173,0.411,0.6916,0.0952,0.3392,0.3078,0.426,0.3625
-0.004,0.021,0.002,0.014,0.099,0.811,0.013,0.0018,0.007,0.0969,0.768,0.003,0.0162,0.081,0.7,-0.0165,0.0969,0.5343,0.105,0.492,0.6699,0.021,0.027,0.1088,0.092,0.0078,0.106,0.6608,0.11,0.4922,0.7155,0.0374,0.0616,0.5371,0.1173,0.399,0.6726,0.0969,0.3264,0.3002,0.414,0.355
-0.005,0.02,0.002,0.014,0.104,0.781,0.012,0.0018,0.007,0.10115,0.7392,0.003,0.0135,0.084,0.675,-0.0165,0.1007,0.5148,0.11,0.476,0.6468,0.021,0.027,0.1122,0.089,0.0078,0.11,0.6372,0.114,0.4738,0.693,0.034,0.0616,0.5166,0.1224,0.384,0.6536,0.1003,0.3104,0.2926,0.402,0.345
-0.003,0.02,0.002,0.013,0.112,0.747,0.012,0.0018,0.007,0.10795,0.708,0.003,0.0135,0.093,0.645,-0.0165,0.1083,0.4914,0.1175,0.46,0.6336,0.021,0.027,0.119,0.086,0.0078,0.116,0.6077,0.12,0.4531,0.6705,0.0306,0.0638,0.492,0.1275,0.369,0.6384,0.1071,0.2976,0.285,0.39,0.3375
-0.005,0.02,0.002,0.013,0.122,0.714,0.011,0.0018,0.007,0.1173,0.6768,0.0024,0.0135,0.102,0.62,-0.0165,0.1197,0.468,0.125,0.44,0.6171,0.0225,0.024,0.1292,0.082,0.0078,0.126,0.5782,0.128,0.4324,0.6525,0.0306,0.0682,0.4674,0.1326,0.354,0.6194,0.1156,0.2848,0.2736,0.378,0.33
-0.004,0.021,0.002,0.013,0.135,0.679,0.012,0.0018,0.007,0.1309,0.6432,0.0024,0.0135,0.117,0.59,-0.0165,0.1311,0.4407,0.1375,0.42,0.5874,0.024,0.024,0.1394,0.078,0.0078,0.138,0.5487,0.14,0.4117,0.6345,0.0238,0.0748,0.4428,0.1428,0.336,0.6042,0.1258,0.2688,0.2698,0.369,0.3225
-0.003,0.022,0.002,0.013,0.153,0.645,0.012,0.0018,0.007,0.14875,0.612,0.0024,0.0162,0.135,0.56,-0.0165,0.1482,0.4173,0.1525,0.4,0.5643,0.0255,0.027,0.1564,0.075,0.0078,0.154,0.5192,0.156,0.391,0.6165,0.0204,0.0814,0.4182,0.1581,0.321,0.589,0.1394,0.256,0.2622,0.36,0.315
-0.003,0.023,0.002,0.013,0.176,0.609,0.013,0.0018,0.007,0.17425,0.576,0.0024,0.0162,0.159,0.53,-0.0165,0.1729,0.39,0.175,0.376,0.5577,0.027,0.027,0.1768,0.071,0.0078,0.178,0.4897,0.178,0.3703,0.603,0.0238,0.0924,0.3895,0.1734,0.303,0.5738,0.1598,0.24,0.2584,0.354,0.31
-0.005,0.025,0.002,0.012,0.213,0.566,0.014,0.0018,0.007,0.21165,0.54,0.0024,0.0189,0.198,0.5,-0.0165,0.209,0.3627,0.2075,0.352,0.5544,0.0315,0.027,0.2074,0.067,0.0078,0.212,0.4602,0.212,0.3473,0.5985,0.0238,0.1078,0.3608,0.204,0.285,0.57,0.1887,0.224,0.2546,0.348,0.3075
-0.004,0.027,0.003,0.012,0.268,0.519,0.016,0.0018,0.007,0.2635,0.5016,0.0024,0.0216,0.249,0.465,-0.0165,0.2584,0.3315,0.2525,0.324,0.5379,0.036,0.03,0.2516,0.062,0.0078,0.262,0.4248,0.258,0.322,0.594,0.0238,0.1276,0.3362,0.2397,0.264,0.57,0.2312,0.208,0.2546,0.351,0.3075
-0.003,0.031,0.002,0.011,0.327,0.476,0.018,0.0018,0.007,0.32385,0.4632,0.0024,0.0243,0.312,0.43,-0.0165,0.3173,0.3042,0.3075,0.296,0.5346,0.042,0.033,0.306,0.058,0.0078,0.318,0.3953,0.312,0.299,0.603,0.0272,0.154,0.3075,0.2856,0.246,0.5814,0.2788,0.192,0.2584,0.357,0.31
-0.003,0.034,0.003,0.011,0.382,0.433,0.02,0.0018,0.0056,0.37995,0.4248,0.0024,0.027,0.372,0.4,-0.0165,0.3762,0.273,0.36,0.272,0.5478,0.048,0.036,0.357,0.054,0.0078,0.372,0.3658,0.362,0.2737,0.6075,0.0238,0.1782,0.2747,0.3315,0.228,0.589,0.3264,0.176,0.2584,0.363,0.3125
-0.004,0.035,0.003,0.011,0.41,0.396,0.021,0.0012,0.0056,0.408,0.3936,0.0024,0.027,0.402,0.37,-0.0165,0.4066,0.2496,0.385,0.248,0.5445,0.051,0.039,0.3808,0.05,0.0078,0.398,0.3363,0.39,0.2553,0.603,0.0272,0.1914,0.2542,0.3519,0.213,0.5852,0.3502,0.1632,0.2546,0.36,0.3075
-0.004,0.034,0.003,0.01,0.404,0.362,0.021,0.0012,0.0056,0.40205,0.36,0.0024,0.027,0.399,0.34,-0.0165,0.4028,0.2262,0.3825,0.228,0.5016,0.051,0.036,0.3808,0.046,0.0078,0.394,0.3068,0.384,0.2346,0.576,0.0272,0.1892,0.2296,0.3519,0.195,0.5586,0.3468,0.1472,0.247,0.342,0.2975
-0.003,0.032,0.003,0.01,0.361,0.329,0.019,0.0012,0.0056,0.3587,0.3264,0.0024,0.0243,0.357,0.31,-0.0165,0.3629,0.2028,0.345,0.208,0.4521,0.0465,0.033,0.3434,0.043,0.0065,0.354,0.2714,0.344,0.2162,0.522,0.0272,0.1716,0.2009,0.3162,0.18,0.5092,0.3128,0.1376,0.2242,0.312,0.275
-0.003,0.027,0.002,0.01,0.291,0.297,0.015,0.0012,0.0056,0.28815,0.2952,0.0018,0.0189,0.285,0.275,-0.018,0.2945,0.1794,0.2825,0.188,0.4026,0.039,0.03,0.2788,0.039,0.0065,0.288,0.2419,0.276,0.1978,0.4545,0.0204,0.1408,0.1763,0.2652,0.165,0.4408,0.255,0.1184,0.1976,0.273,0.2475
-0.004,0.023,0.003,0.009,0.204,0.265,0.012,0.0012,0.0042,0.20145,0.2616,0.0012,0.0162,0.192,0.24,-0.0165,0.2071,0.156,0.2025,0.172,0.3168,0.03,0.024,0.2006,0.035,0.0065,0.206,0.2124,0.192,0.1794,0.378,0.0136,0.1034,0.1517,0.1938,0.147,0.361,0.1836,0.1056,0.1672,0.222,0.215
-0.004,0.019,0.003,0.009,0.133,0.239,0.009,0.0012,0.0042,0.13175,0.2352,0.0012,0.0108,0.117,0.21,-0.0165,0.1349,0.1365,0.1375,0.156,0.2409,0.0225,0.015,0.1394,0.032,0.0065,0.138,0.1829,0.126,0.1633,0.3105,0.0102,0.0726,0.1312,0.1377,0.135,0.2926,0.1258,0.0928,0.1368,0.183,0.1875
-0.004,0.016,0.003,0.009,0.082,0.215,0.007,0.0012,0.0042,0.0799,0.2088,0.0006,0.0081,0.06,0.185,-0.0165,0.0817,0.117,0.0875,0.14,0.2046,0.0165,0.006,0.0918,0.028,0.0065,0.088,0.1593,0.078,0.1472,0.2565,0.0102,0.0484,0.1107,0.0918,0.123,0.2394,0.0799,0.08,0.1178,0.15,0.165
-0.004,0.015,0.003,0.009,0.052,0.197,0.006,0.0006,0.0042,0.05015,0.1896,0.0006,0.0081,0.03,0.165,-0.018,0.0513,0.1053,0.0575,0.128,0.1716,0.0135,0,0.0646,0.026,0.0065,0.06,0.1475,0.052,0.138,0.225,0.0102,0.0374,0.0984,0.0714,0.114,0.2052,0.0544,0.0736,0.1064,0.129,0.15
-0.004,0.014,0.003,0.009,0.033,0.18,0.005,0.0006,0.0042,0.03145,0.1728,0.0006,0.0054,0.009,0.14,-0.018,0.0304,0.0897,0.04,0.12,0.1353,0.0105,-0.006,0.0442,0.024,0.0052,0.048,0.1475,0.038,0.1334,0.2115,0.0136,0.033,0.0984,0.0663,0.111,0.19,0.0425,0.0736,0.1026,0.123,0.145
-0.005,0.014,0.003,0.009,0.022,0.167,0.004,0.0006,0.0028,0.02125,0.1608,0.0006,0.0054,0,0.125,-0.018,0.0209,0.0819,0.03,0.112,0.1155,0.0105,-0.006,0.0374,0.023,0.0065,0.05,0.1711,0.042,0.1403,0.225,0.0374,0.044,0.1066,0.0918,0.123,0.1938,0.0442,0.0896,0.1178,0.129,0.1525
-0.005,0.015,0.004,0.009,0.017,0.154,0.004,0.0006,0.0014,0.01445,0.1488,0.0006,0.0054,-0.006,0.11,-0.018,0.0133,0.0741,0.025,0.104,0.1155,0.009,-0.009,0.0306,0.021,0.0052,0.04,0.1475,0.03,0.1265,0.2025,0.0306,0.0374,0.0902,0.0765,0.111,0.171,0.034,0.0768,0.1064,0.114,0.14
-0.005,0.013,0.003,0.008,0.011,0.141,0.003,0.0006,0.0014,0.0102,0.1368,0.0006,0.0054,-0.009,0.1,-0.018,0.0076,0.0624,0.02,0.096,0.0957,0.009,-0.012,0.0272,0.02,0.0052,0.038,0.1416,0.026,0.1219,0.1935,0.0306,0.0374,0.082,0.0765,0.108,0.1634,0.0323,0.0736,0.1026,0.108,0.135
-0.005,0.013,0.003,0.008,0.009,0.13,0.003,0,0.0014,0.00765,0.1248,0.0006,0.0054,-0.012,0.09,-0.018,0.0057,0.0546,0.0175,0.088,0.0792,0.0075,-0.012,0.0238,0.018,0.0052,0.038,0.1416,0.026,0.1173,0.189,0.034,0.0396,0.0779,0.0816,0.108,0.1558,0.0323,0.0736,0.1026,0.108,0.13
-0.004,0.013,0.003,0.008,0.007,0.119,0.003,-0.0006,0,0.00595,0.1128,0.0006,0.0054,-0.015,0.08,-0.018,0.0038,0.0468,0.015,0.084,0.0858,0.0075,-0.012,0.0204,0.017,0.0052,0.034,0.1298,0.026,0.1081,0.1755,0.0306,0.0352,0.0656,0.0714,0.099,0.1444,0.0289,0.064,0.095,0.099,0.12
-0.004,0.013,0.003,0.007,0.006,0.11,0.003,-0.0006,0,0.0051,0.1056,0.0006,0.0054,-0.015,0.075,-0.0165,0.0038,0.0429,0.015,0.076,0.0627,0.0075,-0.009,0.0204,0.016,0.0052,0.03,0.1121,0.022,0.1012,0.162,0.0272,0.0308,0.0533,0.0612,0.09,0.1292,0.0255,0.0576,0.0874,0.09,0.1125
-0.005,0.013,0.003,0.008,0.006,0.102,0.003,-0.0006,0,0.00425,0.096,0.0006,0.0054,-0.015,0.065,-0.0165,0.0019,0.0351,0.0125,0.068,0.066,0.009,-0.009,0.0204,0.015,0.0052,0.032,0.1121,0.022,0.0989,0.162,0.034,0.0352,0.0533,0.0612,0.09,0.1292,0.0272,0.0576,0.0912,0.09,0.11
-0.005,0.013,0.003,0.008,0.005,0.095,0.003,-0.0006,-0.0014,0.0034,0.0888,0.0006,0.0054,-0.015,0.06,-0.018,0.0019,0.0312,0.0125,0.064,0.0594,0.009,-0.009,0.017,0.014,0.0052,0.034,0.1121,0.022,0.0966,0.162,0.0374,0.0374,0.0533,0.0663,0.09,0.1292,0.0289,0.0576,0.0912,0.09,0.1075
-0.004,0.013,0.003,0.008,0.005,0.09,0.003,-0.0006,-0.0014,0.0034,0.084,0,0.0054,-0.018,0.05,-0.0165,0.0019,0.0273,0.0125,0.06,0.0429,0.009,-0.012,0.017,0.013,0.0052,0.03,0.0944,0.018,0.0874,0.144,0.0272,0.033,0.041,0.051,0.078,0.114,0.0238,0.048,0.0798,0.081,0.095
-0.004,0.013,0.003,0.007,0.005,0.083,0.003,-0.0006,-0.0014,0.0034,0.0768,0,0.0054,-0.018,0.045,-0.018,0.0019,0.0234,0.0125,0.056,0.0528,0.009,-0.015,0.017,0.012,0.0039,0.03,0.0885,0.02,0.0851,0.1395,0.0272,0.033,0.0369,0.051,0.078,0.1102,0.0238,0.048,0.0798,0.078,0.0925
-0.004,0.013,0.003,0.007,0.005,0.077,0.003,-0.0006,-0.0014,0.00255,0.072,0,0.0054,-0.018,0.04,-0.0165,0.0019,0.0195,0.0125,0.052,0.0363,0.009,-0.012,0.017,0.012,0.0039,0.034,0.0944,0.024,0.0851,0.144,0.034,0.0374,0.041,0.0612,0.081,0.114,0.0272,0.0512,0.0874,0.081,0.0925
-0.004,0.013,0.003,0.007,0.005,0.07,0.003,-0.0006,-0.0028,0.00255,0.0648,0,0.0027,-0.018,0.035,-0.0165,0,0.0117,0.0125,0.044,0.0297,0.009,-0.009,0.017,0.011,0.0039,0.03,0.0767,0.018,0.0759,0.1305,0.0272,0.033,0.0287,0.0459,0.072,0.1026,0.0238,0.0416,0.076,0.072,0.0825
-0.004,0.013,0.003,0.007,0.005,0.064,0.003,-0.0006,-0.0028,0.00255,0.0576,0,0.0054,-0.018,0.03,-0.018,0,0.0078,0.01,0.04,0.0363,0.009,-0.009,0.017,0.01,0.0039,0.028,0.0708,0.016,0.0713,0.1215,0.0272,0.0308,0.0205,0.0357,0.066,0.095,0.0221,0.0384,0.0722,0.066,0.075
-0.004,0.013,0.004,0.007,0.005,0.058,0.003,-0.0012,-0.0028,0.00255,0.0528,0,0.0027,-0.018,0.025,-0.018,0,0.0039,0.01,0.036,0.0198,0.0075,-0.015,0.017,0.009,0.0039,0.032,0.0767,0.024,0.0736,0.1305,0.0374,0.0352,0.0246,0.051,0.069,0.0988,0.0272,0.0416,0.076,0.072,0.0775
-0.003,0.013,0.004,0.007,0.005,0.054,0.003,-0.0012,-0.0028,0.00255,0.048,0,0.0027,-0.021,0.02,-0.018,0,0,0.01,0.032,0.0198,0.0075,-0.015,0.017,0.009,0.0039,0.03,0.0649,0.02,0.0667,0.117,0.034,0.0286,0.0123,0.0408,0.063,0.0874,0.0238,0.032,0.0684,0.063,0.07
-0.004,0.013,0.004,0.007,0.005,0.049,0.003,-0.0012,-0.0028,0.00255,0.0432,0,0.0027,-0.021,0.015,-0.018,0,-0.0039,0.01,0.028,0.0198,0.0075,-0.012,0.0136,0.008,0.0026,0.028,0.0531,0.016,0.0598,0.108,0.0238,0.0264,0.0082,0.0306,0.057,0.0798,0.0221,0.0288,0.0608,0.057,0.0625
-0.004,0.013,0.004,0.007,0.005,0.045,0.003,-0.0012,-0.0042,0.0017,0.0408,0,0.0027,-0.024,0.01,-0.018,0,-0.0078,0.01,0.024,0.0099,0.0075,-0.012,0.0136,0.008,0.0026,0.032,0.0649,0.02,0.0644,0.117,0.0306,0.0286,0.0123,0.0408,0.063,0.0874,0.0255,0.0352,0.0684,0.063,0.065
-0.004,0.013,0.004,0.007,0.005,0.041,0.003,-0.0012,-0.0042,0.0017,0.036,0,0.0027,-0.024,0.01,-0.018,0,-0.0078,0.01,0.02,0.0099,0.0075,-0.012,0.0136,0.007,0.0026,0.032,0.059,0.022,0.0598,0.1125,0.0306,0.0286,0.0082,0.0408,0.06,0.0836,0.0255,0.032,0.0684,0.06,0.0625
-0.004,0.013,0.004,0.007,0.005,0.037,0.003,-0.0012,-0.0042,0.0017,0.0312,0,0.0027,-0.024,0.005,-0.0165,0,-0.0117,0.01,0.016,0.0099,0.0075,-0.015,0.0136,0.007,0.0026,0.026,0.0413,0.016,0.0529,0.099,0.0238,0.0198,-0.0041,0.0255,0.048,0.0684,0.0204,0.0224,0.057,0.051,0.0525
-0.003,0.013,0.004,0.007,0.005,0.033,0.003,-0.0012,-0.0042,0.0017,0.0288,0,0.0027,-0.024,0,-0.0165,0,-0.0156,0.01,0.012,0,0.0075,-0.012,0.017,0.006,0.0026,0.03,0.0472,0.018,0.0552,0.1035,0.034,0.0242,0,0.0357,0.054,0.076,0.0238,0.0256,0.0646,0.054,0.055
-0.004,0.013,0.004,0.007,0.005,0.029,0.003,-0.0012,-0.0042,0.00255,0.0264,0.0006,0.0054,-0.021,0,-0.0165,0.0019,-0.0156,0.01,0.008,0,0.0075,-0.009,0.017,0.007,0.0026,0.034,0.0531,0.022,0.0552,0.108,0.0408,0.0264,0.0041,0.0408,0.054,0.076,0.0255,0.0288,0.0684,0.057,0.0575
-0.004,0.013,0.004,0.007,0.005,0.026,0.004,-0.0006,-0.0028,0.00255,0.0264,0.0006,0.0081,-0.018,0,-0.015,0.0019,-0.0156,0.0125,0.008,0.0033,0.009,-0.009,0.0204,0.007,0.0039,0.026,0.0295,0.016,0.046,0.0855,0.0204,0.0176,-0.0123,0.0153,0.042,0.0608,0.0187,0.016,0.0494,0.045,0.045
-0.004,0.013,0.004,0.007,0.005,0.024,0.004,-0.0006,-0.0028,0.0034,0.024,0.0012,0.0081,-0.018,0,-0.0135,0.0038,-0.0156,0.0125,0.008,0,0.009,-0.006,0.0204,0.007,0.0052,0.032,0.0413,0.02,0.0506,0.099,0.0272,0.022,0,0.0306,0.051,0.0684,0.0238,0.0256,0.0608,0.051,0.0525
-0.003,0.013,0.004,0.006,0.005,0.022,0.005,0,-0.0014,0.0034,0.0216,0.0012,0.0081,-0.018,0,-0.0135,0.0038,-0.0156,0.015,0.004,0.0033,0.009,-0.003,0.0204,0.007,0.0052,0.032,0.0413,0.02,0.0483,0.0945,0.0306,0.0242,-0.0041,0.0357,0.048,0.0684,0.0238,0.0224,0.0608,0.051,0.05
-0.003,0.013,0.004,0.007,0.005,0.02,0.005,0,-0.0014,0.00425,0.0216,0.0018,0.0108,-0.015,0,-0.012,0.0057,-0.0156,0.015,0.004,0,0.0105,-0.003,0.0238,0.007,0.0052,0.026,0.0236,0.016,0.0414,0.081,0.0272,0.0176,-0.0164,0.0204,0.039,0.057,0.0187,0.0128,0.0494,0.042,0.0425
-0.003,0.013,0.004,0.007,0.005,0.018,0.006,0,-0.0014,0.00425,0.0192,0.0018,0.0108,-0.012,0,-0.012,0.0057,-0.0156,0.015,0.004,0,0.0105,0,0.0238,0.007,0.0052,0.032,0.0413,0.02,0.0483,0.0945,0.034,0.0242,-0.0041,0.0306,0.048,0.0646,0.0238,0.0224,0.0608,0.051,0.05
-0.003,0.013,0.005,0.007,0.005,0.016,0.005,0,-0.0014,0.00425,0.0192,0.0018,0.0108,-0.012,0,-0.0135,0.0057,-0.0156,0.015,0,-0.0033,0.0105,0,0.0238,0.007,0.0052,0.03,0.0295,0.018,0.0437,0.0855,0.0204,0.0198,-0.0123,0.0204,0.042,0.057,0.0221,0.016,0.0532,0.045,0.045
-0.003,0.013,0.005,0.007,0.005,0.015,0.006,0,0,0.00425,0.0168,0.0018,0.0108,-0.012,0,-0.012,0.0057,-0.0156,0.015,0,-0.0033,0.0105,0.003,0.0238,0.007,0.0065,0.03,0.0236,0.018,0.0414,0.0855,0.0306,0.0198,-0.0123,0.0306,0.042,0.0532,0.0221,0.016,0.0532,0.042,0.0425
-0.003,0.013,0.005,0.007,0.005,0.014,0.006,0,0,0.00425,0.0168,0.0018,0.0135,-0.012,0,-0.0105,0.0057,-0.0156,0.0175,0,-0.0033,0.0105,0.009,0.0238,0.007,0.0065,0.03,0.0295,0.018,0.0437,0.0855,0.0272,0.022,-0.0123,0.0306,0.042,0.0456,0.0221,0.0192,0.057,0.045,0.045
-0.003,0.013,0.005,0.007,0.006,0.013,0.007,0.0006,0.0014,0.0051,0.0192,0.0024,0.0135,-0.009,0.005,-0.0105,0.0076,-0.0117,0.0175,0,0,0.012,0.012,0.0272,0.008,0.0078,0.028,0.0177,0.016,0.0391,0.081,0.0238,0.0176,-0.0164,0.0153,0.039,0.0304,0.0204,0.0128,0.0494,0.042,0.04
-0.003,0.013,0.005,0.007,0.006,0.013,0.008,0.0006,0.0028,0.00595,0.0192,0.003,0.0162,-0.006,0.005,-0.009,0.0095,-0.0117,0.02,0.004,0,0.015,0.018,0.0306,0.009,0.0078,0.03,0.0295,0.018,0.0437,0.09,0.0374,0.022,-0.0123,0.0306,0.042,0.0304,0.0238,0.0192,0.057,0.045,0.0425
-0.003,0.013,0.005,0.007,0.006,0.012,0.008,0.0006,0.0014,0.00595,0.0192,0.003,0.0162,-0.006,0.005,-0.009,0.0095,-0.0117,0.02,0.004,0,0.015,0.015,0.0306,0.008,0.0078,0.026,0.0177,0.016,0.0391,0.081,0.0204,0.0176,-0.0205,0.0255,0.036,0.0228,0.0204,0.0128,0.0494,0.039,0.0375
-0.002,0.013,0.005,0.007,0.006,0.011,0.009,0.0012,0.0028,0.0068,0.0216,0.0036,0.0189,-0.003,0.01,-0.006,0.0114,-0.0078,0.0225,0.008,0.0033,0.0165,0.021,0.034,0.009,0.0091,0.03,0.0236,0.018,0.0414,0.0855,0.034,0.022,-0.0123,0.0306,0.042,0.0304,0.0238,0.0192,0.057,0.045,0.0425
-0.002,0.013,0.005,0.008,0.006,0.011,0.009,0.0012,0.0042,0.0068,0.0216,0.0036,0.0216,0,0.015,-0.006,0.0133,-0.0039,0.025,0.008,0.0066,0.018,0.021,0.034,0.01,0.0104,0.026,0.0118,0.016,0.0368,0.0765,0.0238,0.0176,-0.0205,0.0153,0.033,0.019,0.0204,0.0128,0.0494,0.039,0.0375
-0.002,0.013,0.005,0.008,0.006,0.01,0.009,0.0012,0.0042,0.0068,0.0216,0.0036,0.0216,0,0.01,-0.006,0.0114,-0.0078,0.025,0.008,0.0033,0.0165,0.021,0.034,0.01,0.0091,0.03,0.0236,0.018,0.0414,0.0855,0.034,0.022,-0.0123,0.0255,0.039,0.0228,0.0238,0.0192,0.0532,0.045,0.0425
-0.002,0.013,0.006,0.008,0.006,0.01,0.01,0.0018,0.0056,0.00765,0.024,0.0042,0.0243,0.003,0.015,-0.003,0.0152,-0.0078,0.0275,0.012,0.0066,0.018,0.021,0.0374,0.011,0.0117,0.026,0.0118,0.016,0.0368,0.0765,0.0238,0.0176,-0.0205,0.0204,0.03,0.0152,0.0204,0.0096,0.0456,0.039,0.0375
-0.001,0.014,0.006,0.009,0.006,0.01,0.009,0.0012,0.0042,0.0068,0.0192,0.0036,0.0216,-0.003,0.01,-0.006,0.0114,-0.0195,0.025,0.008,0.0033,0.015,0.018,0.034,0.01,0.0091,0.028,0.0118,0.016,0.0391,0.081,0.0272,0.0198,-0.0205,0.0204,0.033,0.0228,0.0221,0.0128,0.0494,0.042,0.04
-0.001,0.014,0.006,0.009,0.006,0.01,0.01,0.0012,0.0056,0.00765,0.0216,0.0042,0.0216,0,0.015,-0.0045,0.0133,-0.0117,0.025,0.008,0.0066,0.0165,0.021,0.0374,0.01,0.0104,0.026,0.0118,0.016,0.0368,0.0765,0.0238,0.0198,-0.0205,0.0204,0.03,0.0228,0.0204,0.0128,0.0494,0.039,0.0375